File: rawdata/buffer_cooling1
H2O_H2O
Furnace temperature 	Time	HeatFlow
/°C	/s	/mW
64.8589	0.000000000	-0.164194
64.967	2.1	-0.165218
65.24	4.2	-0.165397
65.6864	6.3	-0.166997
66.2146	8.4	-0.171401
66.7246	10.5	-0.179544
67.1573	12.6	-0.192397
67.4825	14.7	-0.209653
67.692	16.8	-0.229713
67.808	18.9	-0.252684
67.848	21	-0.276806
67.8501	23.1	-0.301126
67.8358	25.2	-0.32453
67.824	27.3	-0.347073
67.8168	29.4	-0.368412
67.8186	31.5	-0.388692
67.8243	33.6	-0.408435
67.8287	35.7	-0.427298
67.8322	37.8	-0.445407
67.8283	39.9	-0.462601
67.8195	42	-0.478896
67.8063	44.1	-0.495282
67.7888	46.2	-0.510051
67.7687	48.3	-0.524101
67.7473	50.4	-0.536102
67.7249	52.5	-0.547044
67.7012	54.6	-0.556872
67.678	56.7	-0.566395
67.6536	58.8	-0.574552
67.6279	60.9	-0.581595
67.6023	63	-0.587164
67.5758	65.1	-0.592464
67.5484	67.2	-0.597459
67.5193	69.3	-0.601572
67.49	71.4	-0.604716
67.4598	73.5	-0.606421
67.4283	75.6	-0.607082
67.3967	77.7	-0.606414
67.3645	79.8	-0.605638
67.3321	81.9	-0.605257
67.2997	84	-0.6036
67.2667	86.1	-0.600756
67.2329	88.2	-0.596581
67.1992	90.3	-0.592244
67.1646	92.4	-0.586954
67.1296	94.5	-0.581897
67.0943	96.6	-0.576571
67.0587	98.7	-0.570218
67.0225	100.8	-0.563434
66.9863	102.9	-0.557153
66.9499	105	-0.550135
66.9133	107.1	-0.542289
66.8767	109.2	-0.536097
66.8396	111.3	-0.529042
66.8022	113.4	-0.521806
66.7646	115.5	-0.51565
66.7268	117.6	-0.508989
66.6888	119.7	-0.500853
66.6506	121.8	-0.494624
66.6122	123.9	-0.489528
66.5736	126	-0.48265
66.535	128.1	-0.475898
66.4962	130.2	-0.471251
66.4571	132.3	-0.467162
66.4178	134.4	-0.463108
66.3785	136.5	-0.459828
66.3391	138.6	-0.456044
66.2996	140.7	-0.453286
66.2599	142.8	-0.448458
66.2202	144.9	-0.445033
66.1802	147	-0.443318
66.1402	149.1	-0.438651
66.1001	151.2	-0.433228
66.0599	153.3	-0.431135
66.0195	155.4	-0.42654
65.9792	157.5	-0.422466
65.9387	159.6	-0.418446
65.8981	161.7	-0.41313
65.8929	163.8	-0.405996
65.9012	165.9	-0.399671
65.8975	168	-0.393616
65.8769	170.1	-0.384734
65.8411	172.2	-0.373961
65.7944	174.3	-0.364412
65.7426	176.4	-0.355781
65.6918	178.5	-0.345726
65.6454	180.6	-0.333475
65.6049	182.7	-0.321853
65.5695	184.8	-0.309618
65.5368	186.9	-0.295221
65.5038	189	-0.281615
65.4692	191.1	-0.266857
65.4321	193.2	-0.25343
65.392	195.3	-0.240291
65.3508	197.4	-0.22688
65.3078	199.5	-0.212767
65.2653	201.6	-0.200651
65.2233	203.7	-0.188751
65.1819	205.8	-0.179499
65.1407	207.9	-0.169237
65.1003	210	-0.159569
65.0599	212.1	-0.150999
65.019	214.2	-0.141618
64.9778	216.3	-0.13265
64.9366	218.4	-0.125862
64.8943	220.5	-0.120948
64.8525	222.6	-0.114556
64.8099	224.7	-0.108685
64.7673	226.8	-0.105283
64.7244	228.9	-0.100746
64.6817	231	-0.0939378
64.6391	233.1	-0.0857235
64.5963	235.2	-0.0776709
64.554	237.3	-0.0699782
64.5115	239.4	-0.0613299
64.4691	241.5	-0.0539425
64.4262	243.6	-0.0466088
64.3828	245.7	-0.0378867
64.3393	247.8	-0.0275958
64.2963	249.9	-0.018512
64.2526	252	-0.0102027
64.2093	254.1	-0.001370018
64.1662	256.2	0.0100411
64.1231	258.3	0.0232378
64.0798	260.4	0.0344523
64.0367	262.5	0.0454512
63.9936	264.6	0.0551166
63.9505	266.7	0.0616635
63.907	268.8	0.0722678
63.8627	270.9	0.081304
63.8191	273	0.0887181
63.7756	275.1	0.0945638
63.7319	277.2	0.0983722
63.6885	279.3	0.105337
63.6448	281.4	0.112951
63.6009	283.5	0.118221
63.5578	285.6	0.122428
63.514	287.7	0.126635
63.4703	289.8	0.130355
63.4263	291.9	0.134707
63.3828	294	0.13574
63.3396	296.1	0.137711
63.296	298.2	0.140728
63.2523	300.3	0.145803
63.2083	302.4	0.148172
63.1646	304.5	0.152182
63.1205	306.6	0.156193
63.0775	308.7	0.162081
63.034	310.8	0.165786
62.99	312.9	0.166694
62.9461	315	0.168397
62.9025	317.1	0.173257
62.8588	319.2	0.177595
62.8148	321.3	0.181788
62.771	323.4	0.186487
62.7275	325.5	0.189743
62.684	327.6	0.194136
62.6406	329.7	0.201652
62.5968	331.8	0.2098
62.553	333.9	0.215007
62.5094	336	0.21821
62.4659	338.1	0.222064
62.4222	340.2	0.227434
62.3781	342.3	0.231071
62.3345	344.4	0.23247
62.2905	346.5	0.23322
62.2471	348.6	0.235251
62.2038	350.7	0.239864
62.1606	352.8	0.242889
62.1171	354.9	0.243549
62.0733	357	0.24484
62.0294	359.1	0.246222
61.9856	361.2	0.247045
61.9418	363.3	0.246964
61.8986	365.4	0.245691
61.8554	367.5	0.244436
61.812	369.6	0.245494
61.7683	371.7	0.246985
61.7248	373.8	0.249469
61.6814	375.9	0.251828
61.6378	378	0.253789
61.5943	380.1	0.258026
61.5511	382.2	0.260313
61.5076	384.3	0.261787
61.4639	386.4	0.261833
61.4202	388.5	0.263037
61.377	390.6	0.267673
61.3335	392.7	0.27184
61.29	394.8	0.275863
61.2469	396.9	0.277338
61.2036	399	0.277928
61.1603	401.1	0.281843
61.1166	403.2	0.283608
61.0734	405.3	0.284758
61.0299	407.4	0.287662
60.9864	409.5	0.289228
60.9432	411.6	0.28924
60.8999	413.7	0.289759
60.8563	415.8	0.289843
60.8132	417.9	0.290343
60.7701	420	0.291675
60.727	422.1	0.292338
60.6836	424.2	0.294611
60.6401	426.3	0.294352
60.5968	428.4	0.290657
60.5536	430.5	0.290886
60.511	432.6	0.291115
60.4674	434.7	0.291526
60.4241	436.8	0.293274
60.3809	438.9	0.294752
60.3377	441	0.296013
60.2943	443.1	0.296586
60.2507	445.2	0.296762
60.2077	447.3	0.296593
60.1645	449.4	0.296787
60.1218	451.5	0.297632
60.0785	453.6	0.299925
60.0357	455.7	0.301457
59.9931	457.8	0.302031
59.9501	459.9	0.304288
59.907	462	0.304465
59.8638	464.1	0.304188
59.8205	466.2	0.303749
59.7771	468.3	0.304306
59.7332	470.4	0.305893
59.6898	472.5	0.306884
59.6468	474.6	0.30811
59.6042	476.7	0.30778
59.5614	478.8	0.307558
59.5187	480.9	0.307608
59.4763	483	0.307568
59.4332	485.1	0.307727
59.3898	487.2	0.306437
59.3466	489.3	0.308134
59.3033	491.4	0.311733
59.2601	493.5	0.312671
59.2166	495.6	0.313572
59.174	497.7	0.311504
59.1314	499.8	0.312152
59.0887	501.9	0.312546
59.0462	504	0.311854
59.0029	506.1	0.311723
58.9596	508.2	0.313585
58.9168	510.3	0.315719
58.8737	512.4	0.314103
58.8304	514.5	0.315041
58.7871	516.6	0.314005
58.7446	518.7	0.313585
58.7017	520.8	0.315393
58.6591	522.9	0.314121
58.616	525	0.31477
58.5733	527.1	0.316978
58.5306	529.2	0.31625
58.4875	531.3	0.312658
58.4442	533.4	0.3126
58.4012	535.5	0.31169
58.3581	537.6	0.311342
58.3149	539.7	0.312571
58.2729	541.8	0.313855
58.2303	543.9	0.313833
58.1873	546	0.313178
58.1447	548.1	0.310509
58.1022	550.2	0.312047
58.0593	552.3	0.314002
58.0162	554.4	0.315486
57.9729	556.5	0.318076
57.9299	558.6	0.318037
57.8872	560.7	0.318469
57.8442	562.8	0.317795
57.8013	564.9	0.317321
57.759	567	0.319458
57.7169	569.1	0.320798
57.6742	571.2	0.320523
57.6312	573.3	0.319632
57.5883	575.4	0.319866
57.5455	577.5	0.319518
57.5022	579.6	0.320115
57.4589	581.7	0.320439
57.4162	583.8	0.319366
57.374	585.9	0.317494
57.3314	588	0.316257
57.2888	590.1	0.315801
57.2461	592.2	0.316942
57.2034	594.3	0.31694
57.1607	596.4	0.317138
57.1182	598.5	0.315792
57.0753	600.6	0.316715
57.0322	602.7	0.316676
56.9889	604.8	0.317273
56.946	606.9	0.31738
56.9038	609	0.316052
56.8613	611.1	0.315215
56.8186	613.2	0.315558
56.7758	615.3	0.316445
56.7331	617.4	0.315935
56.6904	619.5	0.315733
56.6481	621.6	0.316403
56.6046	623.7	0.313912
56.5617	625.8	0.313402
56.5187	627.9	0.315252
56.4757	630	0.316122
56.4338	632.1	0.313849
56.3918	634.2	0.314883
56.3491	636.3	0.315499
56.3065	638.4	0.314643
56.2634	640.5	0.314005
56.2208	642.6	0.311696
56.1773	644.7	0.314202
56.1345	646.8	0.316253
56.0919	648.9	0.31547
56.0493	651	0.313923
56.0067	653.1	0.313431
55.9642	655.2	0.312975
55.9218	657.3	0.313464
55.8795	659.4	0.314244
55.8371	661.5	0.315078
55.7944	663.6	0.315786
55.7516	665.7	0.316457
55.7083	667.8	0.31631
55.6656	669.9	0.313945
55.6226	672	0.310416
55.5798	674.1	0.310742
55.5378	676.2	0.31345
55.4961	678.3	0.315594
55.4536	680.4	0.313247
55.411	682.5	0.310463
55.3673	684.6	0.311498
55.3245	686.7	0.312224
55.2815	688.8	0.31235
55.2383	690.9	0.312513
55.196	693	0.311401
55.1534	695.1	0.310709
55.1113	697.2	0.311854
55.0693	699.3	0.312198
55.027	701.4	0.311287
54.9846	703.5	0.313488
54.9418	705.6	0.312631
54.8989	707.7	0.312248
54.856	709.8	0.312975
54.813	711.9	0.313429
54.7701	714	0.313246
54.7274	716.1	0.314393
54.685	718.2	0.315029
54.6424	720.3	0.314281
54.6	722.4	0.312369
54.5574	724.5	0.315209
54.515	726.6	0.317484
54.4731	728.7	0.317429
54.4302	730.8	0.31721
54.3872	732.9	0.31863
54.3442	735	0.315698
54.3015	737.1	0.311999
54.2586	739.2	0.312017
54.2161	741.3	0.311998
54.1735	743.4	0.311833
54.1314	745.5	0.312161
54.0894	747.6	0.311996
54.0472	749.7	0.31103
54.0043	751.8	0.311503
53.9614	753.9	0.316113
53.9187	756	0.315894
53.8755	758.1	0.311429
53.8329	760.2	0.309351
53.7908	762.3	0.309478
53.7486	764.4	0.309641
53.7059	766.5	0.309769
53.6634	768.6	0.309294
53.621	770.7	0.308182
53.5784	772.8	0.307689
53.5352	774.9	0.307762
53.493	777	0.309329
53.4506	779.1	0.307214
53.4079	781.2	0.303566
53.3655	783.3	0.301851
53.323	785.4	0.30154
53.28	787.5	0.302725
53.2374	789.6	0.304932
53.1953	791.7	0.305205
53.1532	793.8	0.305716
53.1103	795.9	0.308744
53.0675	798	0.30931
53.0249	800.1	0.311079
52.9821	802.2	0.310623
52.9391	804.3	0.308799
52.8963	806.4	0.30774
52.8538	808.5	0.310916
52.8119	810.6	0.311774
52.7693	812.7	0.309602
52.7272	814.8	0.310515
52.6841	816.9	0.313546
52.6417	819	0.315116
52.5993	821.1	0.312744
52.5567	823.2	0.309458
52.5143	825.3	0.305258
52.4723	827.4	0.304436
52.4294	829.5	0.305933
52.3859	831.6	0.30829
52.3433	833.7	0.306007
52.301	835.8	0.304036
52.2584	837.9	0.302264
52.2162	840	0.299469
52.174	842.1	0.299487
52.1314	844.2	0.297039
52.0888	846.3	0.296747
52.0463	848.4	0.298336
52.0032	850.5	0.299524
51.9608	852.6	0.299213
51.9185	854.7	0.300383
51.8762	856.8	0.300109
51.8333	858.9	0.298702
51.7911	861	0.300036
51.7486	863.1	0.300713
51.7066	865.2	0.301957
51.6638	867.3	0.301043
51.6211	869.4	0.301518
51.5786	871.5	0.299032
51.5355	873.6	0.297826
51.4932	875.7	0.300203
51.4502	877.8	0.30249
51.4081	879.9	0.302143
51.3657	882	0.302016
51.3231	884.1	0.302126
51.2804	886.2	0.303919
51.2382	888.3	0.30167
51.1951	890.4	0.300061
51.1525	892.5	0.301177
51.1099	894.6	0.302203
51.0673	896.7	0.301691
51.0247	898.8	0.301015
50.9824	900.9	0.300796
50.9409	903	0.30098
50.898	905.1	0.302994
50.8556	907.2	0.30424
50.8132	909.3	0.302539
50.7707	911.4	0.299483
50.7282	913.5	0.296609
50.6856	915.6	0.295585
50.6429	917.7	0.297398
50.6	919.8	0.295586
50.5574	921.9	0.295843
50.5151	924	0.294947
50.4723	926.1	0.293666
50.4298	928.2	0.29449
50.3873	930.3	0.296268
50.345	932.4	0.295682
50.3026	934.5	0.293338
50.2593	936.6	0.290958
50.2168	938.7	0.290812
50.1746	940.8	0.291362
50.1324	942.9	0.291217
50.0898	945	0.291694
50.0471	947.1	0.290338
50.0052	949.2	0.290101
49.963	951.3	0.291916
49.9202	953.4	0.293035
49.8772	955.5	0.291074
49.8344	957.6	0.289224
49.7918	959.7	0.288381
49.7492	961.8	0.286989
49.7067	963.9	0.286953
49.6642	966	0.288127
49.6216	968.1	0.289833
49.5786	970.2	0.291375
49.5361	972.3	0.293008
49.4937	974.4	0.293633
49.4512	976.5	0.292296
49.4088	978.6	0.29226
49.3661	980.7	0.292885
49.3234	982.8	0.291639
49.2809	984.9	0.28975
49.2388	987	0.288963
49.1972	989.1	0.288321
49.1555	991.2	0.286873
49.1126	993.3	0.288728
49.0696	995.4	0.288747
49.0262	997.5	0.286234
48.9832	999.6	0.284546
48.9407	1001.7	0.282949
48.8988	1003.8	0.282767
48.8565	1005.9	0.283539
48.814	1008	0.282548
48.7714	1010.1	0.283504
48.7292	1012.2	0.284276
48.6867	1014.3	0.284498
48.6437	1016.4	0.282828
48.6014	1018.5	0.284004
48.559	1020.6	0.283436
48.5162	1022.7	0.283602
48.4735	1024.8	0.283622
48.4309	1026.9	0.283623
48.3881	1029	0.285021
48.3463	1031.1	0.286823
48.3045	1033.2	0.286622
48.2618	1035.3	0.286992
48.2188	1037.4	0.28453
48.1757	1039.5	0.282197
48.1332	1041.6	0.281372
48.0906	1043.7	0.281226
48.0481	1045.8	0.282458
48.0058	1047.9	0.284538
47.9635	1050	0.28465
47.921	1052.1	0.283346
47.8785	1054.2	0.284065
47.8357	1056.3	0.28563
47.7932	1058.4	0.28587
47.7511	1060.5	0.288116
47.7082	1062.6	0.288081
47.6656	1064.7	0.286059
47.6234	1066.8	0.284368
47.5806	1068.9	0.28369
47.5379	1071	0.284593
47.4952	1073.1	0.286159
47.4532	1075.2	0.285627
47.4113	1077.3	0.28458
47.3686	1079.4	0.28322
47.3264	1081.5	0.282817
47.2836	1083.6	0.28199
47.2412	1085.7	0.28133
47.1982	1087.8	0.278533
47.1555	1089.9	0.279731
47.113	1092	0.280211
47.0707	1094.1	0.280489
47.0286	1096.2	0.279534
46.9862	1098.3	0.27937
46.9431	1100.4	0.277474
46.9	1102.5	0.276519
46.8571	1104.6	0.276668
46.8141	1106.7	0.276393
46.7724	1108.8	0.276799
46.7298	1110.9	0.277612
46.6875	1113	0.275937
46.6455	1115.1	0.273985
46.6032	1117.2	0.273692
46.5605	1119.3	0.275352
46.5178	1121.4	0.278284
46.4757	1123.5	0.278489
46.433	1125.6	0.276279
46.3902	1127.7	0.275359
46.3481	1129.8	0.278458
46.305	1131.9	0.281318
46.2621	1134	0.281302
46.2193	1136.1	0.280733
46.1768	1138.2	0.278928
46.134	1140.3	0.278542
46.0913	1142.4	0.280186
46.0491	1144.5	0.278178
46.007	1146.6	0.277147
45.9639	1148.7	0.277315
45.9213	1150.8	0.277963
45.8787	1152.9	0.277652
45.836	1155	0.275625
45.7936	1157.1	0.274537
45.7511	1159.2	0.274466
45.7088	1161.3	0.27624
45.6667	1163.4	0.277128
45.6242	1165.5	0.275358
45.582	1167.6	0.272591
45.5389	1169.7	0.270987
45.4968	1171.8	0.271173
45.4544	1173.9	0.26931
45.4117	1176	0.26922
45.3687	1178.1	0.269351
45.3262	1180.2	0.270184
45.2838	1182.3	0.271183
45.2415	1184.4	0.270853
45.1992	1186.5	0.267991
45.157	1188.6	0.266238
45.1138	1190.7	0.266499
45.0713	1192.8	0.268885
45.0286	1194.9	0.268332
44.9859	1197	0.26425
44.9432	1199.1	0.262514
44.9008	1201.2	0.262959
44.8584	1203.3	0.264255
44.8159	1205.4	0.265403
44.7742	1207.5	0.264111
44.7316	1209.6	0.26352
44.6884	1211.7	0.265131
44.6459	1213.8	0.266724
44.6031	1215.9	0.266448
44.5597	1218	0.26388
44.5173	1220.1	0.264251
44.4751	1222.2	0.266177
44.433	1224.3	0.267696
44.3913	1226.4	0.268161
44.3487	1228.5	0.268422
44.3059	1230.6	0.267222
44.2634	1232.7	0.266354
44.2204	1234.8	0.265505
44.1777	1236.9	0.265359
44.1351	1239	0.265214
44.0925	1241.1	0.264901
44.0502	1243.2	0.264107
44.008	1245.3	0.262517
43.9651	1247.4	0.261853
43.9227	1249.5	0.261651
43.8803	1251.6	0.261561
43.8383	1253.7	0.26123
43.7962	1255.8	0.259528
43.7533	1257.9	0.259363
43.7102	1260	0.261366
43.6678	1262.1	0.261627
43.6248	1264.2	0.259943
43.5823	1266.3	0.25737
43.5394	1268.4	0.254203
43.4976	1270.5	0.253111
43.4555	1272.6	0.251519
43.4129	1274.7	0.249426
43.3702	1276.8	0.250113
43.3279	1278.9	0.251005
43.2855	1281	0.250988
43.2434	1283.1	0.24934
43.2009	1285.2	0.248006
43.1588	1287.3	0.249435
43.116	1289.4	0.251179
43.0733	1291.5	0.251032
43.0307	1293.6	0.250626
42.9877	1295.7	0.251017
42.9453	1297.8	0.25241
42.9029	1299.9	0.250612
42.8608	1302	0.247274
42.8186	1304.1	0.246385
42.7762	1306.2	0.248409
42.7335	1308.3	0.248726
42.6909	1310.4	0.248134
42.648	1312.5	0.247894
42.6051	1314.6	0.247302
42.5622	1316.7	0.247786
42.5203	1318.8	0.2497
42.4778	1320.9	0.250983
42.4355	1323	0.254661
42.3934	1325.1	0.254608
42.3508	1327.2	0.25331
42.3077	1329.3	0.253034
42.2652	1331.4	0.252423
42.2233	1333.5	0.250827
42.1808	1335.6	0.253449
42.138	1337.7	0.25386
42.095	1339.8	0.252636
42.0524	1341.9	0.252768
42.0106	1344	0.253031
41.9687	1346.1	0.250765
41.926	1348.2	0.249708
41.8834	1350.3	0.249802
41.8406	1352.4	0.250269
41.798	1354.5	0.250959
41.7549	1356.6	0.251593
41.7125	1358.7	0.251986
41.67	1360.8	0.250872
41.6279	1362.9	0.25132
41.5853	1365	0.251434
41.5429	1367.1	0.251008
41.5005	1369.2	0.250415
41.4584	1371.3	0.250157
41.4157	1373.4	0.248132
41.373	1375.5	0.247873
41.3304	1377.6	0.250257
41.2877	1379.7	0.249906
41.2452	1381.8	0.249779
41.2028	1383.9	0.249892
41.1605	1386	0.250956
41.1182	1388.1	0.251796
41.0755	1390.2	0.249713
41.0334	1392.3	0.24858
40.9914	1394.4	0.247764
40.9485	1396.5	0.24812
40.9062	1398.6	0.247229
40.8634	1400.7	0.246747
40.8208	1402.8	0.246023
40.7789	1404.9	0.245484
40.7361	1407	0.246176
40.6935	1409.1	0.246123
40.6511	1411.2	0.245137
40.6077	1413.3	0.24486
40.5651	1415.4	0.243763
40.5227	1417.5	0.243541
40.4803	1419.6	0.243674
40.4381	1421.7	0.243751
40.3951	1423.8	0.244984
40.3528	1425.9	0.243663
40.3105	1428	0.243963
40.2682	1430.1	0.242269
40.2259	1432.2	0.240536
40.1837	1434.3	0.23968
40.1408	1436.4	0.239347
40.0978	1438.5	0.239797
40.0553	1440.6	0.239799
40.0126	1442.7	0.241014
39.9696	1444.8	0.241501
39.9265	1446.9	0.242511
39.8847	1449	0.244249
39.8431	1451.1	0.242983
39.8009	1453.2	0.240502
39.7591	1455.3	0.238432
39.717	1457.4	0.238715
39.6748	1459.5	0.239277
39.6323	1461.6	0.239933
39.5893	1463.7	0.239151
39.5463	1465.8	0.239377
39.5039	1467.9	0.238726
39.4621	1470	0.2397
39.4191	1472.1	0.238451
39.3765	1474.2	0.238472
39.3343	1476.3	0.238586
39.2916	1478.4	0.237336
39.249	1480.5	0.234591
39.2071	1482.6	0.233827
39.1649	1484.7	0.235698
39.1225	1486.8	0.23686
39.0799	1488.9	0.233759
39.0371	1491	0.232078
38.9951	1493.1	0.232454
38.9526	1495.2	0.232905
38.9104	1497.3	0.230008
38.8673	1499.4	0.23044
38.8245	1501.5	0.230928
38.7817	1503.6	0.232053
38.74	1505.7	0.231045
38.6978	1507.8	0.230691
38.6557	1509.9	0.231124
38.6139	1512	0.232174
38.5721	1514.1	0.232101
38.5301	1516.2	0.232346
38.4878	1518.3	0.231693
38.4458	1520.4	0.231433
38.4036	1522.5	0.231865
38.362	1524.6	0.23168
38.3201	1526.7	0.231664
38.2781	1528.8	0.231291
38.236	1530.9	0.230638
38.1933	1533	0.232158
38.1509	1535.1	0.231879
38.1082	1537.2	0.231376
38.066	1539.3	0.231284
38.0234	1541.4	0.231155
37.9805	1543.5	0.231738
37.9386	1545.6	0.230035
37.8964	1547.7	0.228182
37.8542	1549.8	0.228203
37.8118	1551.9	0.229217
37.7691	1554	0.2301
37.726	1556.1	0.22984
37.6832	1558.2	0.23018
37.6404	1560.3	0.232057
37.5979	1562.4	0.230091
37.5551	1564.5	0.227055
37.513	1566.6	0.227357
37.4706	1568.7	0.227903
37.4283	1570.8	0.227717
37.3855	1572.9	0.228433
37.3424	1575	0.22836
37.3	1577.1	0.227612
37.2579	1579.2	0.226882
37.2153	1581.3	0.226452
37.1724	1583.4	0.225366
37.1301	1585.5	0.223922
37.0875	1587.6	0.223117
37.045	1589.7	0.224771
37.0026	1591.8	0.224923
36.9598	1593.9	0.222766
36.9174	1596	0.2232
36.875	1598.1	0.22446
36.8323	1600.2	0.22465
36.7893	1602.3	0.223675
36.7467	1604.4	0.22285
36.7043	1606.5	0.223754
36.662	1608.6	0.224677
36.6201	1610.7	0.224304
36.5774	1612.8	0.223028
36.5351	1614.9	0.223293
36.4928	1617	0.222205
36.45	1619.1	0.221342
36.4069	1621.2	0.222472
36.3642	1623.3	0.222775
36.3221	1625.4	0.221649
36.28	1627.5	0.218792
36.2374	1629.6	0.217082
36.1949	1631.7	0.218439
36.1517	1633.8	0.219551
36.1092	1635.9	0.221735
36.0668	1638	0.222942
36.0243	1640.1	0.220535
35.9818	1642.2	0.219803
35.9395	1644.3	0.220313
35.8968	1646.4	0.221388
35.8539	1648.5	0.221616
35.8114	1650.6	0.222636
35.7691	1652.7	0.221452
35.7269	1654.8	0.219382
35.6841	1656.9	0.217991
35.6413	1659	0.217955
35.5986	1661.1	0.218032
35.556	1663.2	0.218468
35.5129	1665.3	0.218244
35.4704	1667.4	0.219433
35.4277	1669.5	0.220001
35.3846	1671.6	0.21908
35.3418	1673.7	0.217367
35.2988	1675.8	0.217916
35.2568	1677.9	0.217258
35.2143	1680	0.21775
35.1726	1682.1	0.217413
35.1306	1684.2	0.217565
35.0879	1686.3	0.215927
35.0458	1688.4	0.214156
35.0035	1690.5	0.216025
34.9608	1692.6	0.217592
34.9174	1694.7	0.218047
34.8746	1696.8	0.218087
34.8319	1698.9	0.217561
34.7896	1701	0.216639
34.7474	1703.1	0.215698
34.7051	1705.2	0.214209
34.6628	1707.3	0.213286
34.6203	1709.4	0.214195
34.5779	1711.5	0.215405
34.535	1713.6	0.215124
34.4925	1715.7	0.214843
34.4498	1717.8	0.213146
34.408	1719.9	0.212279
34.3657	1722	0.212772
34.323	1724.1	0.21249
34.28	1726.2	0.211698
34.2377	1728.3	0.210453
34.1956	1730.4	0.209509
34.1535	1732.5	0.20936
34.1107	1734.6	0.210023
34.0677	1736.7	0.21165
34.0251	1738.8	0.210858
33.9829	1740.9	0.209858
33.9406	1743	0.210427
33.8979	1745.1	0.209711
33.8554	1747.2	0.209769
33.813	1749.3	0.209317
33.7709	1751.4	0.209679
33.7282	1753.5	0.209662
33.6854	1755.6	0.208547
33.643	1757.7	0.207962
33.6011	1759.8	0.20891
33.5591	1761.9	0.207853
33.5164	1764	0.20812
33.4739	1766.1	0.207061
33.4312	1768.2	0.205927
33.3889	1770.3	0.207993
33.3465	1772.4	0.209036
33.3038	1774.5	0.206917
33.2618	1776.6	0.2069
33.2189	1778.7	0.206011
33.1765	1780.8	0.206543
33.1342	1782.9	0.208515
33.0917	1785	0.207456
33.0494	1787.1	0.206662
33.0062	1789.2	0.205432
32.9641	1791.3	0.205926
32.9215	1793.4	0.207482
32.8784	1795.5	0.208962
32.8352	1797.6	0.207106
32.7926	1799.7	0.206843
32.7505	1801.8	0.205669
32.708	1803.9	0.207454
32.6662	1806	0.207683
32.624	1808.1	0.207135
32.5817	1810.2	0.205298
32.5385	1812.3	0.204068
32.4957	1814.4	0.204337
32.4536	1816.5	0.203485
32.4111	1818.6	0.201476
32.3689	1820.7	0.201156
32.3265	1822.8	0.200114
32.2839	1824.9	0.198178
32.2409	1827	0.19799
32.198	1829.1	0.19782
32.1553	1831.2	0.196929
32.1121	1833.3	0.197139
32.0695	1835.4	0.196571
32.0269	1837.5	0.195679
31.9847	1839.6	0.196668
31.9426	1841.7	0.198037
31.9	1843.8	0.197924
31.858	1845.9	0.199084
31.8163	1848	0.197718
31.7743	1850.1	0.196484
31.7319	1852.2	0.195382
31.6899	1854.3	0.195459
31.6477	1856.4	0.196544
31.6052	1858.5	0.196089
31.5625	1860.6	0.194607
31.5205	1862.7	0.195464
31.477	1864.8	0.196569
31.434	1866.9	0.195143
31.3914	1869	0.194269
31.348	1871.1	0.194955
31.3049	1873.2	0.195204
31.2622	1875.3	0.195282
31.2196	1877.4	0.195435
31.1766	1879.5	0.195778
31.1343	1881.6	0.194752
31.0925	1883.7	0.195229
31.0499	1885.8	0.194773
31.0083	1887.9	0.194261
30.9657	1890	0.194262
30.9244	1892.1	0.194816
30.8817	1894.2	0.194703
30.8394	1896.3	0.193752
30.7975	1898.4	0.191676
30.755	1900.5	0.1908
30.7122	1902.6	0.191201
30.6695	1904.7	0.19105
30.6274	1906.8	0.190746
30.585	1908.9	0.192443
30.5425	1911	0.193855
30.4996	1913.1	0.192293
30.4566	1915.2	0.191856
30.414	1917.3	0.193802
30.3721	1919.4	0.193842
30.3298	1921.5	0.193442
30.2868	1923.6	0.192452
30.244	1925.7	0.194018
30.2015	1927.8	0.195088
30.1588	1929.9	0.194498
30.1163	1932	0.194671
30.0741	1934.1	0.194329
30.0318	1936.2	0.192956
29.9893	1938.3	0.191907
29.947	1940.4	0.192004
29.9048	1942.5	0.191184
29.8627	1944.6	0.191911
29.8205	1946.7	0.193096
29.7782	1948.8	0.194339
29.7355	1950.9	0.193481
29.6933	1953	0.190618
29.6515	1955.1	0.191116
29.6095	1957.2	0.191614
29.5671	1959.3	0.192857
29.525	1961.4	0.192744
29.4824	1963.5	0.19202
29.44	1965.6	0.192403
29.3979	1967.7	0.191735
29.3553	1969.8	0.189595
29.3115	1971.9	0.187149
29.2671	1974	0.186481
29.2218	1976.1	0.186788
29.1773	1978.2	0.18742
29.1335	1980.3	0.187899
29.09	1982.4	0.186561
29.047	1984.5	0.187576
29.0046	1986.6	0.18798
28.9625	1988.7	0.187751
28.9203	1990.8	0.186489
28.8777	1992.9	0.186509
28.8345	1995	0.186185
28.792	1997.1	0.184558
28.749	1999.2	0.184616
28.7065	2001.3	0.18615
28.6648	2003.4	0.185768
28.6227	2005.5	0.185328
28.5805	2007.6	0.18531
28.5379	2009.7	0.185694
28.4953	2011.8	0.187113
28.4531	2013.9	0.185811
28.4108	2016	0.184068
28.3686	2018.1	0.183092
28.3261	2020.2	0.182633
28.2834	2022.3	0.182365
28.2409	2024.4	0.18133
28.1982	2026.5	0.181158
28.1558	2028.6	0.181101
28.1136	2030.7	0.181121
28.0716	2032.8	0.181735
28.0289	2034.9	0.182734
27.9861	2037	0.181488
27.9435	2039.1	0.180088
27.9019	2041.2	0.178534
27.86	2043.3	0.176404
27.8174	2045.4	0.177172
27.775	2047.5	0.178958
27.7321	2049.6	0.180322
27.6895	2051.7	0.178767
27.6468	2053.8	0.17725
27.6044	2055.9	0.177097
27.562	2058	0.177193
27.52	2060.1	0.176502
27.4782	2062.2	0.177406
27.4363	2064.3	0.178156
27.3933	2066.4	0.178983
27.3509	2068.5	0.179425
27.309	2070.6	0.179484
27.2665	2072.7	0.177466
27.2242	2074.8	0.176198
27.181	2076.9	0.175795
27.1388	2079	0.174526
27.0968	2081.1	0.176372
27.0543	2083.2	0.178238
27.0119	2085.3	0.180085
26.9692	2087.4	0.180529
26.9262	2089.5	0.178952
26.8842	2091.6	0.178395
26.8423	2093.7	0.178242
26.7997	2095.8	0.17728
26.758	2097.9	0.176184
26.7162	2100	0.175973
26.6731	2102.1	0.174626
26.6308	2104.2	0.174549
26.5886	2106.3	0.173817
26.5464	2108.4	0.17351
26.5038	2110.5	0.17403
26.4613	2112.6	0.174589
26.4186	2114.7	0.174127
26.3757	2116.8	0.174243
26.3337	2118.9	0.17459
26.2911	2121	0.174513
26.2489	2123.1	0.17461
26.2065	2125.2	0.175208
26.1644	2127.3	0.175671
26.1225	2129.4	0.175267
26.0797	2131.5	0.175249
26.0371	2133.6	0.176079
25.9947	2135.7	0.175501
25.9524	2137.8	0.175019
25.9095	2139.9	0.17446
25.8672	2142	0.173303
25.8251	2144.1	0.173824
25.7827	2146.2	0.174713
25.7399	2148.3	0.174501
25.6976	2150.4	0.173864
25.6552	2152.5	0.17373
25.6131	2154.6	0.174232
25.5707	2156.7	0.175778
25.5278	2158.8	0.17659
25.4859	2160.9	0.175026
25.4433	2163	0.172999
25.4003	2165.1	0.171705
25.3581	2167.2	0.171184
25.3159	2169.3	0.171629
25.2736	2171.4	0.171706
25.2311	2173.5	0.17076
25.1884	2175.6	0.17161
25.146	2177.7	0.173003
25.103	2179.8	0.171051
25.0603	2181.9	0.169736
25.018	2184	0.169659
24.9759	2186.1	0.169949
24.9342	2188.2	0.167281
24.8919	2190.3	0.165617
24.8503	2192.4	0.165268
24.8078	2194.5	0.164339
24.7657	2196.6	0.1637
24.7233	2198.7	0.165654
24.6804	2200.8	0.167202
24.6379	2202.9	0.166021
24.5956	2205	0.16484
24.5527	2207.1	0.164898
24.5098	2209.2	0.165344
24.4677	2211.3	0.163756
24.4251	2213.4	0.162903
24.383	2215.5	0.162224
24.3409	2217.6	0.162185
24.2985	2219.7	0.161313
24.2562	2221.8	0.160866
24.2137	2223.9	0.16073
24.171	2226	0.160517
24.1286	2228.1	0.161078
24.086	2230.2	0.16226
24.0431	2232.3	0.162803
24.0006	2234.4	0.161794
23.9581	2236.5	0.159912
23.9151	2238.6	0.157526
23.8732	2240.7	0.155992
23.8306	2242.8	0.155642
23.7893	2244.9	0.155932
23.747	2247	0.155718
23.7045	2249.1	0.156842
23.6619	2251.2	0.157423
23.6194	2253.3	0.158568
23.5773	2255.4	0.157577
23.535	2257.5	0.155926
23.492	2259.6	0.154604
23.4493	2261.7	0.153962
23.4065	2263.8	0.15396
23.3643	2265.9	0.153124
23.322	2268	0.152967
23.2793	2270.1	0.151509
23.2369	2272.2	0.152615
23.195	2274.3	0.154752
23.1529	2276.4	0.154654
23.1106	2278.5	0.154866
23.0687	2280.6	0.154904
23.0265	2282.7	0.154825
22.9837	2284.8	0.15533
22.9414	2286.9	0.154959
22.8991	2289	0.153927
22.8564	2291.1	0.154335
22.8139	2293.2	0.15447
22.7711	2295.3	0.153302
22.7287	2297.4	0.153339
22.6865	2299.5	0.154214
22.6439	2301.6	0.15468
22.6018	2303.7	0.153395
22.5597	2305.8	0.152109
22.5172	2307.9	0.152244
22.4753	2310	0.153528
22.4324	2312.1	0.153468
22.3902	2314.2	0.151675
22.3476	2316.3	0.150017
22.3056	2318.4	0.150055
22.2629	2320.5	0.150248
22.2203	2322.6	0.149916
22.1778	2324.7	0.150323
22.1356	2326.8	0.152544
22.0931	2328.9	0.154044
22.0505	2331	0.154492
22.0081	2333.1	0.152736
21.966	2335.2	0.152481
21.9239	2337.3	0.151017
21.8814	2339.4	0.150079
21.8385	2341.5	0.150117
21.796	2343.6	0.150955
21.7535	2345.7	0.150778
21.7115	2347.8	0.150601
21.6685	2349.9	0.14978
21.6261	2352	0.149994
21.5845	2354.1	0.15007
21.5421	2356.2	0.148409
21.4997	2358.3	0.147822
21.4572	2360.4	0.148895
21.4153	2362.5	0.148444
21.3737	2364.6	0.147407
21.3313	2366.7	0.146585
21.2883	2368.8	0.147286
21.2456	2370.9	0.14748
21.2029	2373	0.147068
21.1608	2375.1	0.147243
21.1184	2377.2	0.148355
21.0763	2379.3	0.147748
21.0337	2381.4	0.148059
20.9919	2383.5	0.147256
20.9495	2385.6	0.146041
20.9064	2387.7	0.145512
20.8636	2389.8	0.145764
20.8213	2391.9	0.145782
20.7789	2394	0.144763
20.7366	2396.1	0.146445
20.6947	2398.2	0.1475
20.6522	2400.3	0.146539
20.6099	2402.4	0.145363
20.5677	2404.5	0.143756
20.5252	2406.6	0.144831
20.482	2408.7	0.144751
20.44	2410.8	0.14565
20.398	2412.9	0.143317
20.355	2415	0.143237
20.312	2417.1	0.143666
20.2704	2419.2	0.143018
20.2284	2421.3	0.143133
20.1867	2423.4	0.144073
20.1445	2425.5	0.142836
20.1022	2427.6	0.140559
20.0593	2429.7	0.140243
20.0164	2431.8	0.139986
19.9739	2433.9	0.14169
19.9314	2436	0.140726
19.8882	2438.1	0.140587
19.8463	2440.2	0.141095
19.8041	2442.3	0.141976
19.7618	2444.4	0.14276
19.7197	2446.5	0.142738
19.6775	2448.6	0.141657
19.6346	2450.7	0.140967
19.5921	2452.8	0.140749
19.5498	2454.9	0.140727
19.5071	2457	0.138977
19.4653	2459.1	0.13976
19.4226	2461.2	0.141644
19.3801	2463.3	0.14121
19.3372	2465.4	0.140186
19.2942	2467.5	0.140322
19.2522	2469.6	0.140182
19.21	2471.7	0.138981
19.1677	2473.8	0.137681
19.1251	2475.9	0.137423
19.083	2478	0.137165
19.0405	2480.1	0.136887
18.9986	2482.2	0.135389
18.9565	2484.3	0.132809
18.9138	2486.4	0.132944
18.8714	2488.5	0.13363
18.8293	2490.6	0.133036
18.787	2492.7	0.133683
18.7447	2494.8	0.133857
18.7021	2496.9	0.13476
18.6602	2499	0.136294
18.6181	2501.1	0.136862
18.5756	2503.2	0.135757
18.533	2505.3	0.135222
18.4902	2507.4	0.13652
18.4483	2509.5	0.135887
18.4065	2511.6	0.134821
18.3634	2513.7	0.133714
18.3207	2515.8	0.131937
18.2782	2517.9	0.130949
18.2358	2520	0.131853
18.1932	2522.1	0.133703
18.151	2524.2	0.133681
18.1086	2526.3	0.130403
18.0668	2528.4	0.13038
18.0247	2530.5	0.131048
17.9822	2532.6	0.129841
17.9398	2534.7	0.130667
17.897	2536.8	0.13092
17.8549	2538.9	0.129851
17.8123	2541	0.130401
17.7697	2543.1	0.129687
17.7279	2545.2	0.128796
17.6858	2547.3	0.129168
17.6434	2549.4	0.129717
17.6007	2551.5	0.129358
17.5583	2553.6	0.12894
17.5158	2555.7	0.128798
17.4733	2557.8	0.128815
17.4305	2559.9	0.128634
17.3882	2562	0.128749
17.3459	2564.1	0.127698
17.3039	2566.2	0.126785
17.2613	2568.3	0.125971
17.2186	2570.4	0.126106
17.177	2572.5	0.124361
17.1347	2574.6	0.123546
17.0922	2576.7	0.123305
17.0497	2578.8	0.124706
17.0073	2580.9	0.125988
16.9644	2583	0.125628
16.9221	2585.1	0.125526
16.8793	2587.2	0.125245
16.8372	2589.3	0.126113
16.7952	2591.4	0.124149
16.7529	2593.5	0.122877
16.711	2595.6	0.123091
16.669	2597.7	0.123701
16.6265	2599.8	0.123817
16.5838	2601.9	0.121494
16.541	2604	0.120955
16.4984	2606.1	0.122537
16.4565	2608.2	0.121997
16.4135	2610.3	0.121656
16.3714	2612.4	0.121513
16.3287	2614.5	0.122422
16.287	2616.6	0.122953
16.2458	2618.7	0.122453
16.2038	2620.8	0.122132
16.1613	2622.9	0.120263
16.1184	2625	0.119663
16.0757	2627.1	0.120413
16.0333	2629.2	0.120806
15.9909	2631.3	0.119412
15.9479	2633.4	0.118157
15.906	2635.5	0.117517
15.8639	2637.6	0.117751
15.822	2639.7	0.118481
15.7798	2641.8	0.117921
15.7373	2643.9	0.118711
15.6948	2646	0.119402
15.6524	2648.1	0.118126
15.6105	2650.2	0.116691
15.5686	2652.3	0.115275
15.526	2654.4	0.115469
15.4838	2656.5	0.113933
15.4415	2658.6	0.113689
15.3987	2660.7	0.114062
15.3566	2662.8	0.115429
15.3142	2664.9	0.115703
15.2718	2667	0.115917
15.23	2669.1	0.114957
15.1879	2671.2	0.114196
15.1451	2673.3	0.114192
15.1032	2675.4	0.113151
15.0603	2677.5	0.112012
15.0178	2679.6	0.111349
14.975	2681.7	0.11216
14.9326	2683.8	0.111996
14.8914	2685.9	0.113106
14.85	2688	0.113061
14.8078	2690.1	0.113554
14.7658	2692.2	0.113131
14.7241	2694.3	0.111591
14.6821	2696.4	0.110589
14.6393	2698.5	0.109388
14.5965	2700.6	0.109083
14.5541	2702.7	0.108978
14.5116	2704.8	0.108035
14.469	2706.9	0.109206
14.4266	2709	0.108323
14.3843	2711.1	0.108617
14.342	2713.2	0.109649
14.3004	2715.3	0.107328
14.2585	2717.4	0.107762
14.2164	2719.5	0.108854
14.1743	2721.6	0.109008
14.1325	2723.7	0.109043
14.09	2725.8	0.108039
14.0478	2727.9	0.106734
14.0051	2730	0.106728
13.9627	2732.1	0.107102
13.9211	2734.2	0.106417
13.8799	2736.3	0.104353
13.8375	2738.4	0.104227
13.7955	2740.5	0.103581
13.7534	2742.6	0.103135
13.7113	2744.7	0.103229
13.6684	2746.8	0.103362
13.6258	2748.9	0.104276
13.5842	2751	0.10373
13.5423	2753.1	0.103664
13.5002	2755.2	0.103217
13.4584	2757.3	0.10199
13.4158	2759.4	0.101403
13.3732	2761.5	0.101977
13.331	2763.6	0.10147
13.2886	2765.7	0.100082
13.2465	2767.8	0.100496
13.2048	2769.9	0.0999691
13.1626	2772	0.0994618
13.1207	2774.1	0.0999158
13.0782	2776.2	0.0991077
13.0356	2778.3	0.0990809
12.9936	2780.4	0.0999357
12.9519	2782.5	0.0983858
12.91	2784.6	0.0978374
12.8678	2786.7	0.0971688
12.8253	2788.8	0.0961991
12.7825	2790.9	0.0950888
12.741	2793	0.0948407
12.6993	2795.1	0.095375
12.6576	2797.2	0.0961902
12.616	2799.3	0.0955813
12.5732	2801.4	0.0942698
12.5309	2803.5	0.09364
12.4887	2805.6	0.0933314
12.447	2807.7	0.0938659
12.4045	2809.8	0.094039
12.3618	2811.9	0.0938909
12.3194	2814	0.0930199
12.2771	2816.1	0.0920081
12.2353	2818.2	0.0917994
12.1939	2820.3	0.0911888
12.1521	2822.4	0.0900959
12.1095	2824.5	0.0897665
12.0676	2826.6	0.0900798
12.0257	2828.7	0.0893479
11.9836	2830.8	0.0878724
11.9419	2832.9	0.0879648
11.8993	2835	0.088218
11.8571	2837.1	0.0888534
11.8152	2839.2	0.0892476
11.7731	2841.3	0.0892396
11.7311	2843.4	0.0885878
11.6898	2845.5	0.0871711
11.648	2847.6	0.0867601
11.6056	2849.7	0.0857855
11.5638	2851.8	0.0850519
11.522	2853.9	0.0846805
11.4802	2856	0.0851547
11.4379	2858.1	0.0863139
11.3957	2860.2	0.0863251
11.3534	2862.3	0.0866587
11.3111	2864.4	0.0858845
11.2695	2866.5	0.0861578
11.2275	2868.6	0.0871767
11.1855	2870.7	0.0869864
11.1437	2872.8	0.0877435
11.1015	2874.9	0.0866866
11.0599	2877	0.0866174
11.0182	2879.1	0.0871127
10.976	2881.2	0.0890199
10.9339	2883.3	0.0888299
10.8916	2885.4	0.0885995
10.8503	2887.5	0.087542
10.8086	2889.6	0.0868672
10.7678	2891.7	0.0871207
10.7263	2893.8	0.0858809
10.684	2895.9	0.085004
10.6423	2898	0.0863882
10.5999	2900.1	0.0863998
10.5582	2902.2	0.0859468
10.5163	2904.3	0.0848877
10.4743	2906.4	0.0834445
10.4328	2908.5	0.0835566
10.3907	2910.6	0.0843354
10.3484	2912.7	0.0843466
10.3068	2914.8	0.0838119
10.2658	2916.9	0.0813771
10.2254	2919	0.0802757
10.1837	2921.1	0.0799019
10.142	2923.2	0.0794472
10.1001	2925.3	0.07968
10.0587	2927.4	0.0794069
10.0165	2929.5	0.0802463
9.97445	2931.6	0.0808431
9.93266	2933.7	0.080914
9.89075	2935.8	0.0807624
9.84898	2937.9	0.082331
9.80748	2940	0.083981
9.7662	2942.1	0.083263
9.72425	2944.2	0.0825243
9.6832	2946.3	0.0832433
9.64185	2948.4	0.0833956
9.60105	2950.5	0.0825956
9.56021	2952.6	0.0836387
9.51934	2954.7	0.0840133
9.47754	2956.8	0.0844692
9.43578	2958.9	0.0855532
9.39368	2961	0.0870629
9.35203	2963.1	0.0878838
9.31124	2965.2	0.0884011
9.2697	2967.3	0.0883711
9.22798	2969.4	0.0881587
9.18698	2971.5	0.0892034
9.1453	2973.6	0.0891329
9.10393	2975.7	0.0882714
9.06245	2977.8	0.0882819
9.0215	2979.9	0.0892054
8.97999	2982	0.0900479
8.93906	2984.1	0.0903022
8.89728	2986.2	0.0890746
8.85623	2988.3	0.0891662
8.81594	2990.4	0.0893998
8.77442	2992.5	0.0894915
8.73236	2994.6	0.0888317
8.69063	2996.7	0.0888622
8.64902	2998.8	0.090152
8.63508	2999.5	0.0898102