File: rawdata/buffer_heating2
H2O_H2O
Furnace temperature 	Time	HeatFlow
/°C	/s	/mW
8.2682	0.000000000	0.089021
8.17835	6	0.0899449
8.03436	12	0.088998
7.91865	18	0.0876438
7.79376	24	0.0867962
7.64724	30	0.0874514
7.48636	36	0.0897525
7.3038	42	0.0975661
7.10436	48	0.110424
6.90411	54	0.129243
6.70696	60	0.153958
6.52198	66	0.184953
6.35404	72	0.217685
6.20782	78	0.251358
6.07911	84	0.283465
5.97098	90	0.310896
5.88127	96	0.335099
5.80708	102	0.353186
5.7479	108	0.365388
5.70072	114	0.370731
5.66458	120	0.372777
5.63833	126	0.369782
5.62099	132	0.363295
5.61133	138	0.353115
5.60834	144	0.341213
5.6114	150	0.326699
5.61978	156	0.311237
5.63287	162	0.294973
5.53558	168	0.277561
5.44188	174	0.260177
5.34866	180	0.242781
5.25881	186	0.225091
5.17691	192	0.207672
5.10511	198	0.191215
5.04972	204	0.174866
5.01476	210	0.158929
4.99845	216	0.144762
5.00197	222	0.130378
5.02223	228	0.11588
5.05629	234	0.103189
5.09907	240	0.0905041
5.15215	246	0.0781884
5.20986	252	0.0673743
5.27098	258	0.057616
5.33592	264	0.048246
5.4018	270	0.0387385
5.47053	276	0.0293763
5.5409	282	0.0217754
5.61224	288	0.0138543
5.68344	294	0.006077756
5.75483	300	-0.000302820
5.8271	306	-0.005752476
5.89914	312	-0.0122494
5.97125	318	-0.0179368
6.04242	324	-0.0226337
6.11275	330	-0.0278532
6.18391	336	-0.0322844
6.25425	342	-0.0358671
6.32339	348	-0.0397913
6.39221	354	-0.0436537
6.46003	360	-0.0467086
6.52796	366	-0.0497423
6.5956	372	-0.0524326
6.6625	378	-0.0552629
6.72909	384	-0.0577299
6.79444	390	-0.0601556
6.85942	396	-0.0624195
6.92351	402	-0.0644613
6.98704	408	-0.0658384
7.05053	414	-0.0675371
7.11392	420	-0.0692151
7.17606	426	-0.0710129
7.23755	432	-0.0730716
7.29843	438	-0.0741646
7.35875	444	-0.07576
7.41808	450	-0.075988
7.47758	456	-0.0771803
7.53613	462	-0.0781112
7.59422	468	-0.0789618
7.65244	474	-0.0797114
7.71047	480	-0.0808623
7.76742	486	-0.0814509
7.82418	492	-0.0822199
7.88064	498	-0.0830087
7.93746	504	-0.0838978
7.99345	510	-0.0832617
8.04891	516	-0.0841904
8.10435	522	-0.0845174
8.15953	528	-0.085185
8.21454	534	-0.0857923
8.26913	540	-0.0859183
8.3234	546	-0.0865253
8.37785	552	-0.0862304
8.43239	558	-0.0861961
8.48664	564	-0.0860414
8.54039	570	-0.086408
8.59365	576	-0.0866139
8.64673	582	-0.0867196
8.70107	588	-0.0870058
8.75475	594	-0.0865313
8.80846	600	-0.086437
8.86128	606	-0.0861225
8.91494	612	-0.0864485
8.96888	618	-0.0861145
9.02222	624	-0.0860804
9.07448	630	-0.0858864
9.12753	636	-0.0855526
9.18081	642	-0.0861785
9.23367	648	-0.0860244
9.28625	654	-0.0859304
9.33891	660	-0.0858767
9.39082	666	-0.0853833
9.44347	672	-0.0853494
9.4961	678	-0.0847965
9.54767	684	-0.0848628
9.59987	690	-0.0850887
9.65195	696	-0.0852345
9.70397	702	-0.0851808
9.75583	708	-0.084409
9.80755	714	-0.0845949
9.85945	720	-0.084282
9.91161	726	-0.0848272
9.9626	732	-0.0846341
10.0146	738	-0.0838627
10.0666	744	-0.0840288
10.1176	750	-0.0841551
10.1685	756	-0.0841614
10.2201	762	-0.0841081
10.2724	768	-0.0831185
10.3237	774	-0.0843205
10.3743	780	-0.0839882
10.4257	786	-0.0831784
10.4771	792	-0.0833046
10.5281	798	-0.0833512
10.5789	804	-0.0831387
10.6305	810	-0.0825086
10.6824	816	-0.0831921
10.7325	822	-0.0834574
10.7838	828	-0.0831457
10.8353	834	-0.0830332
10.886	840	-0.0840144
10.9366	846	-0.0836432
10.9879	852	-0.0829739
11.0393	858	-0.0834579
11.0905	864	-0.0834449
11.141	870	-0.0828951
11.1923	876	-0.082425
11.2434	882	-0.0826903
11.2936	888	-0.0835114
11.3447	894	-0.0833394
11.3959	900	-0.0826512
11.4467	906	-0.0835515
11.4969	912	-0.0832407
11.5482	918	-0.0827711
11.5994	924	-0.0833733
11.6499	930	-0.0834398
11.7003	936	-0.0831688
11.7519	942	-0.0823425
11.8027	948	-0.0833014
11.8532	954	-0.0828127
11.9037	960	-0.0835926
11.9551	966	-0.0831435
12.006	972	-0.0828137
12.0561	978	-0.0836725
12.1073	984	-0.0834415
12.1587	990	-0.0837852
12.2091	996	-0.0838118
12.2594	1002	-0.0831452
12.3105	1008	-0.0830333
12.3617	1014	-0.0831988
12.412	1020	-0.0837401
12.4621	1026	-0.084281
12.5133	1032	-0.0838724
12.5647	1038	-0.0839981
12.615	1044	-0.0840048
12.6659	1050	-0.0836358
12.7167	1056	-0.0844535
12.7678	1062	-0.0841637
12.818	1068	-0.0840123
12.8688	1074	-0.0842365
12.9198	1080	-0.0843621
12.9705	1086	-0.084685
13.0206	1092	-0.0836643
13.0717	1098	-0.0843034
13.1231	1104	-0.0850016
13.1733	1110	-0.0852057
13.2239	1116	-0.0843436
13.2749	1122	-0.0847453
13.3259	1128	-0.0848707
13.3758	1134	-0.0856864
13.4268	1140	-0.0851799
13.4778	1146	-0.085463
13.5282	1152	-0.0858445
13.5788	1158	-0.0863639
13.6302	1164	-0.0855225
13.681	1170	-0.0853125
13.731	1176	-0.08595
13.7818	1182	-0.0854047
13.8332	1188	-0.0857859
13.8837	1194	-0.0865218
13.9337	1200	-0.086607
13.9849	1206	-0.0855695
14.0358	1212	-0.0860886
14.0859	1218	-0.0861543
14.1368	1224	-0.0873618
14.1879	1230	-0.0862068
14.2385	1236	-0.0863908
14.2886	1242	-0.0868894
14.3395	1248	-0.0871516
14.3905	1254	-0.0864303
14.4411	1260	-0.087165
14.4913	1266	-0.0867386
14.5423	1272	-0.0872959
14.5931	1278	-0.0877745
14.6438	1284	-0.0873877
14.6939	1290	-0.0879642
14.7451	1296	-0.0870863
14.7961	1302	-0.0877415
14.8463	1308	-0.0879444
14.8968	1314	-0.0876954
14.9477	1320	-0.0877807
14.9985	1326	-0.0881997
15.0485	1332	-0.0877937
15.0996	1338	-0.0881535
15.1506	1344	-0.087905
15.2011	1350	-0.0881863
15.2512	1356	-0.0884086
15.3025	1362	-0.0886897
15.3535	1368	-0.0889317
15.4032	1374	-0.0893696
15.454	1380	-0.0895523
15.5055	1386	-0.0887941
15.5562	1392	-0.0900161
15.6062	1398	-0.0898065
15.6569	1404	-0.0900089
15.7083	1410	-0.0899174
15.7585	1416	-0.0901392
15.8086	1422	-0.0899102
15.86	1428	-0.0897795
15.9106	1434	-0.0910003
15.9609	1440	-0.090595
16.0118	1446	-0.0904446
16.063	1452	-0.0911559
16.1133	1458	-0.0908097
16.1634	1464	-0.0907179
16.2145	1470	-0.0918005
16.2658	1476	-0.0915133
16.3155	1482	-0.0919301
16.366	1488	-0.0916428
16.417	1494	-0.0918643
16.4683	1500	-0.0924765
16.5181	1506	-0.0920327
16.5689	1512	-0.0924495
16.6199	1518	-0.0924947
16.6706	1524	-0.092227
16.7209	1530	-0.0923112
16.7718	1536	-0.0920635
16.8229	1542	-0.0927143
16.8728	1548	-0.0932475
16.9237	1554	-0.0933317
16.9752	1560	-0.0923224
17.0256	1566	-0.0935194
17.0754	1572	-0.0935838
17.1264	1578	-0.0938436
17.1776	1584	-0.0941033
17.2279	1590	-0.0941481
17.2782	1596	-0.0937441
17.3297	1602	-0.0934382
17.3801	1608	-0.0934053
17.43	1614	-0.0951664
17.4809	1620	-0.0944701
17.5322	1626	-0.0947101
17.5825	1632	-0.0949694
17.6325	1638	-0.0940005
17.6839	1644	-0.0948445
17.7344	1650	-0.0940127
17.7843	1656	-0.0953628
17.8353	1662	-0.094823
17.8865	1668	-0.0946733
17.9367	1674	-0.0951856
17.987	1680	-0.0948019
18.0384	1686	-0.0955086
18.089	1692	-0.0956897
18.1391	1698	-0.0953258
18.1896	1704	-0.0957012
18.241	1710	-0.0950455
18.2914	1716	-0.0953434
18.3416	1722	-0.0961077
18.3927	1728	-0.0958411
18.4437	1734	-0.0960999
18.4938	1740	-0.0961446
18.5441	1746	-0.0952754
18.5955	1752	-0.0954951
18.6467	1758	-0.0965507
18.6965	1764	-0.0975474
18.7468	1770	-0.0971449
18.7977	1776	-0.0970148
18.8487	1782	-0.0971176
18.8988	1788	-0.0977253
18.9493	1794	-0.0976143
19.0006	1800	-0.097193
19.051	1806	-0.0978976
19.1011	1812	-0.0980972
19.1523	1818	-0.0972877
19.2033	1824	-0.0989237
19.2533	1830	-0.098444
19.3038	1836	-0.0980615
19.3549	1842	-0.098203
19.4057	1848	-0.099353
19.4559	1854	-0.0994552
19.5064	1860	-0.099926
19.5577	1866	-0.0990981
19.6082	1872	-0.0988128
19.6583	1878	-0.0992252
19.7094	1884	-0.099599
19.7605	1890	-0.0996046
19.8105	1896	-0.0998231
19.8611	1902	-0.10008
19.9124	1908	-0.0995243
19.963	1914	-0.100208
20.0129	1920	-0.100387
20.0638	1926	-0.100451
20.1148	1932	-0.10005
20.165	1938	-0.100945
20.2156	1944	-0.10068
20.2665	1950	-0.101343
20.3176	1956	-0.101194
20.3675	1962	-0.101915
20.4181	1968	-0.102249
20.4694	1974	-0.102003
20.5199	1980	-0.101776
20.5697	1986	-0.102419
20.6208	1992	-0.10169
20.6718	1998	-0.102256
20.7221	2004	-0.101778
20.7724	2010	-0.102209
20.8237	2016	-0.102619
20.8744	2022	-0.103166
20.9242	2028	-0.103036
20.9753	2034	-0.102809
21.0264	2040	-0.103509
21.0767	2046	-0.103341
21.1268	2052	-0.104118
21.178	2058	-0.104143
21.2291	2064	-0.103685
21.2791	2070	-0.104095
21.3295	2076	-0.104602
21.381	2082	-0.104163
21.4312	2088	-0.104381
21.4817	2094	-0.104984
21.5322	2100	-0.105085
21.5835	2106	-0.105514
21.6336	2112	-0.105462
21.6836	2118	-0.105833
21.7347	2124	-0.105683
21.7862	2130	-0.104898
21.8362	2136	-0.105963
21.8862	2142	-0.105814
21.9372	2148	-0.106878
21.9884	2154	-0.106748
22.0385	2160	-0.10735
22.0886	2166	-0.107201
22.1399	2172	-0.10711
22.191	2178	-0.107192
22.2408	2184	-0.107735
22.2914	2190	-0.107413
22.3427	2196	-0.106841
22.3933	2202	-0.107461
22.4432	2208	-0.107755
22.4942	2214	-0.108163
22.5451	2220	-0.107976
22.5957	2226	-0.108366
22.6459	2232	-0.108735
22.6966	2238	-0.109451
22.7478	2244	-0.108918
22.7979	2250	-0.109288
22.8484	2256	-0.110196
22.8995	2262	-0.108587
22.9502	2268	-0.109494
22.9998	2274	-0.109922
23.0509	2280	-0.110733
23.1022	2286	-0.109969
23.1526	2292	-0.110972
23.2026	2298	-0.111553
23.2536	2304	-0.110214
23.3048	2310	-0.111197
23.3549	2316	-0.112353
23.4051	2322	-0.111321
23.4562	2328	-0.112017
23.5071	2334	-0.11229
23.557	2340	-0.111911
23.6083	2346	-0.112049
23.6591	2352	-0.111651
23.7096	2358	-0.111733
23.7594	2364	-0.112791
23.8107	2370	-0.112872
23.8619	2376	-0.113318
23.9117	2382	-0.112728
23.962	2388	-0.113077
24.0131	2394	-0.112507
24.0639	2400	-0.113393
24.1139	2406	-0.113244
24.1644	2412	-0.113344
24.2157	2418	-0.113751
24.2663	2424	-0.11477
24.3166	2430	-0.114602
24.3671	2436	-0.11407
24.4185	2442	-0.114477
24.4685	2448	-0.115151
24.5191	2454	-0.115576
24.57	2460	-0.115159
24.6205	2466	-0.116044
24.6708	2472	-0.11643
24.7217	2478	-0.11632
24.7729	2484	-0.116821
24.8227	2490	-0.116997
24.8731	2496	-0.117192
24.9244	2502	-0.116833
24.9754	2508	-0.116513
25.0251	2514	-0.117339
25.0759	2520	-0.117648
25.127	2526	-0.11855
25.178	2532	-0.117198
25.2276	2538	-0.118368
25.2785	2544	-0.118085
25.3299	2550	-0.118624
25.3802	2556	-0.118571
25.43	2562	-0.119224
25.4811	2568	-0.118521
25.5328	2574	-0.117724
25.5824	2580	-0.118949
25.6325	2586	-0.119278
25.6839	2592	-0.1189
25.7347	2598	-0.118923
25.7848	2604	-0.119786
25.8349	2610	-0.119351
25.8863	2616	-0.118936
25.9371	2622	-0.120408
25.9872	2628	-0.119973
26.0376	2634	-0.119177
26.0892	2640	-0.120153
26.1393	2646	-0.120614
26.1893	2652	-0.119875
26.2408	2658	-0.121117
26.2917	2664	-0.120283
26.3418	2670	-0.12063
26.3919	2676	-0.120615
26.4432	2682	-0.121552
26.4938	2688	-0.120852
26.5441	2694	-0.121446
26.5945	2700	-0.122287
26.6458	2706	-0.122024
26.6962	2712	-0.12121
26.7463	2718	-0.121557
26.7974	2724	-0.123254
26.8485	2730	-0.122744
26.8987	2736	-0.122634
26.9489	2742	-0.122276
26.9999	2748	-0.123459
27.0508	2754	-0.122398
27.1011	2760	-0.123391
27.1514	2766	-0.123014
27.2025	2772	-0.123816
27.2532	2778	-0.123782
27.3033	2784	-0.123976
27.3544	2790	-0.122821
27.4055	2796	-0.122483
27.4556	2802	-0.122943
27.5055	2808	-0.123498
27.5568	2814	-0.123862
27.6077	2820	-0.125025
27.6579	2826	-0.12406
27.7084	2832	-0.124766
27.7599	2838	-0.124998
27.8102	2844	-0.125381
27.86	2850	-0.125973
27.9108	2856	-0.125711
27.9619	2862	-0.12562
28.0123	2868	-0.126402
28.0625	2874	-0.126804
28.1134	2880	-0.126428
28.1645	2886	-0.126584
28.2147	2892	-0.126246
28.2649	2898	-0.126932
28.316	2904	-0.126424
28.3669	2910	-0.126883
28.4169	2916	-0.128497
28.4676	2922	-0.127875
28.5187	2928	-0.128201
28.5695	2934	-0.127864
28.6194	2940	-0.129117
28.6702	2946	-0.129159
28.721	2952	-0.128651
28.7713	2958	-0.129412
28.8219	2964	-0.129756
28.8733	2970	-0.129306
28.9236	2976	-0.129517
28.9734	2982	-0.129862
29.0244	2988	-0.130395
29.0758	2994	-0.129358
29.1258	3000	-0.130156
29.1761	3006	-0.131011
29.2271	3012	-0.131203
29.2784	3018	-0.130583
29.3281	3024	-0.131002
29.3784	3030	-0.131402
29.4297	3036	-0.131274
29.4806	3042	-0.131958
29.5304	3048	-0.131772
29.5809	3054	-0.132966
29.6325	3060	-0.131155
29.6827	3066	-0.132066
29.7327	3072	-0.133108
29.7836	3078	-0.132658
29.8353	3084	-0.1327
29.885	3090	-0.131891
29.9353	3096	-0.132668
29.9865	3102	-0.132332
30.0374	3108	-0.133242
30.0869	3114	-0.133566
30.1379	3120	-0.133494
30.1888	3126	-0.133271
30.2393	3132	-0.132916
30.2895	3138	-0.134146
30.3403	3144	-0.134319
30.3917	3150	-0.134096
30.4421	3156	-0.133911
30.4921	3162	-0.134159
30.5433	3168	-0.133993
30.5937	3174	-0.133695
30.6436	3180	-0.13432
30.6949	3186	-0.134927
30.7462	3192	-0.135722
30.7964	3198	-0.134821
30.8467	3204	-0.135766
30.8976	3210	-0.135939
30.9486	3216	-0.135547
30.9986	3222	-0.135381
31.0494	3228	-0.135912
31.0999	3234	-0.13665
31.1506	3240	-0.135599
31.2009	3246	-0.13707
31.2515	3252	-0.136584
31.3029	3258	-0.135646
31.3535	3264	-0.136535
31.4031	3270	-0.136877
31.4541	3276	-0.137426
31.5054	3282	-0.137335
31.5558	3288	-0.138185
31.6054	3294	-0.13832
31.6568	3300	-0.137853
31.708	3306	-0.137913
31.7575	3312	-0.13848
31.8078	3318	-0.136998
31.8596	3324	-0.138807
31.9102	3330	-0.138528
31.9595	3336	-0.13885
32.0111	3342	-0.137012
32.0619	3348	-0.138162
32.112	3354	-0.139011
32.162	3360	-0.1383
32.2134	3366	-0.139637
32.2642	3372	-0.13904
32.3141	3378	-0.138968
32.3647	3384	-0.139535
32.4162	3390	-0.139256
32.4666	3396	-0.13956
32.5165	3402	-0.140164
32.5678	3408	-0.139567
32.6188	3414	-0.139495
32.6691	3420	-0.140156
32.7186	3426	-0.140966
32.7701	3432	-0.140331
32.8213	3438	-0.139884
32.8712	3444	-0.140188
32.9216	3450	-0.140998
32.9729	3456	-0.141358
33.0232	3462	-0.141511
33.0734	3468	-0.143127
33.1244	3474	-0.140711
33.1754	3480	-0.14109
33.2252	3486	-0.14293
33.2755	3492	-0.142052
33.3273	3498	-0.141943
33.3775	3504	-0.142622
33.4273	3510	-0.143374
33.4781	3516	-0.142572
33.5297	3522	-0.141657
33.5804	3528	-0.143272
33.6299	3534	-0.142863
33.6805	3540	-0.14311
33.7321	3546	-0.143151
33.782	3552	-0.143116
33.8323	3558	-0.143644
33.8838	3564	-0.143591
33.9342	3570	-0.143651
33.9848	3576	-0.143224
34.0355	3582	-0.143264
34.0859	3588	-0.144465
34.1367	3594	-0.143795
34.187	3600	-0.14378
34.238	3606	-0.14339
34.2889	3612	-0.143936
34.3387	3618	-0.143659
34.3894	3624	-0.144205
34.4408	3630	-0.144732
34.491	3636	-0.144474
34.5409	3642	-0.144458
34.5917	3648	-0.144649
34.6433	3654	-0.144951
34.6935	3660	-0.145179
34.7433	3666	-0.144883
34.7948	3672	-0.144289
34.8453	3678	-0.144405
34.8951	3684	-0.145062
34.9461	3690	-0.145383
34.9973	3696	-0.145779
35.0475	3702	-0.145483
35.0975	3708	-0.144945
35.1485	3714	-0.145472
35.2001	3720	-0.144953
35.2499	3726	-0.145628
35.3002	3732	-0.146397
35.3508	3738	-0.146904
35.4021	3744	-0.146684
35.4523	3750	-0.146949
35.5026	3756	-0.146281
35.554	3762	-0.146005
35.6045	3768	-0.147109
35.6545	3774	-0.146981
35.7056	3780	-0.147134
35.7565	3786	-0.148537
35.8066	3792	-0.146974
35.857	3798	-0.14694
35.9079	3804	-0.147764
35.959	3810	-0.148103
36.0092	3816	-0.14669
36.0594	3822	-0.147513
36.1105	3828	-0.147834
36.1614	3834	-0.149403
36.2114	3840	-0.14812
36.2624	3846	-0.147007
36.313	3852	-0.148985
36.3633	3858	-0.148523
36.4141	3864	-0.148508
36.4654	3870	-0.147264
36.5153	3876	-0.14872
36.5652	3882	-0.149487
36.6164	3888	-0.148969
36.6672	3894	-0.148563
36.7179	3900	-0.149591
36.7681	3906	-0.148478
36.819	3912	-0.148928
36.8697	3918	-0.148671
36.9193	3924	-0.148787
36.9705	3930	-0.149813
37.0221	3936	-0.150487
37.0721	3942	-0.150546
37.1215	3948	-0.15055
37.1729	3954	-0.149959
37.2243	3960	-0.149591
37.2745	3966	-0.151119
37.3244	3972	-0.150769
37.3757	3978	-0.149212
37.4265	3984	-0.149308
37.4764	3990	-0.15052
37.5272	3996	-0.150134
37.5787	4002	-0.149933
37.6283	4008	-0.151423
37.6781	4014	-0.150944
37.7299	4020	-0.150632
37.7803	4026	-0.150859
37.831	4032	-0.150974
37.8812	4038	-0.151182
37.9324	4044	-0.150648
37.9829	4050	-0.151469
38.033	4056	-0.152085
38.0839	4062	-0.150604
38.1351	4068	-0.151685
38.1853	4074	-0.152616
38.2352	4080	-0.151414
38.2863	4086	-0.15242
38.3376	4092	-0.151459
38.3875	4098	-0.152242
38.4378	4104	-0.152821
38.4893	4110	-0.152918
38.5397	4116	-0.152458
38.5898	4122	-0.152814
38.6403	4128	-0.151836
38.6914	4134	-0.151506
38.742	4140	-0.151658
38.7928	4146	-0.153442
38.8434	4152	-0.152575
38.8934	4158	-0.15193
38.9442	4164	-0.152398
38.9948	4170	-0.152976
39.046	4176	-0.152165
39.096	4182	-0.152614
39.1462	4188	-0.15297
39.1975	4194	-0.153992
39.2487	4200	-0.152682
39.2981	4206	-0.153149
39.3486	4212	-0.152949
39.4002	4218	-0.154416
39.4506	4224	-0.154087
39.5006	4230	-0.153333
39.5512	4236	-0.154021
39.6023	4242	-0.15397
39.6529	4248	-0.153752
39.7033	4254	-0.153905
39.7538	4260	-0.153761
39.8048	4266	-0.153599
39.855	4272	-0.154621
39.9054	4278	-0.155253
39.9569	4284	-0.154129
40.0073	4290	-0.155059
40.0571	4296	-0.154933
40.1081	4302	-0.155751
40.1591	4308	-0.155422
40.2095	4314	-0.154965
40.2598	4320	-0.155024
40.3109	4326	-0.155472
40.3615	4332	-0.154534
40.4121	4338	-0.155185
40.4623	4344	-0.156261
40.5132	4350	-0.15621
40.5647	4356	-0.154755
40.6143	4362	-0.155646
40.6642	4368	-0.156519
40.716	4374	-0.155951
40.7668	4380	-0.155715
40.8163	4386	-0.155701
40.8669	4392	-0.156647
40.9185	4398	-0.157187
40.9689	4404	-0.156508
41.0188	4410	-0.156974
41.0695	4416	-0.156166
41.121	4422	-0.157131
41.1707	4428	-0.155677
41.221	4434	-0.157306
41.2726	4440	-0.155908
41.3234	4446	-0.155949
41.3729	4452	-0.15612
41.4239	4458	-0.156752
41.4758	4464	-0.156646
41.5258	4470	-0.157001
41.5752	4476	-0.158352
41.6262	4482	-0.159518
41.6778	4488	-0.157937
41.7274	4494	-0.155747
41.7778	4500	-0.155771
41.829	4506	-0.156679
41.8801	4512	-0.156923
41.9295	4518	-0.156062
41.9799	4524	-0.157025
42.0317	4530	-0.156624
42.0824	4536	-0.1572
42.1319	4542	-0.157389
42.1828	4548	-0.157633
42.2345	4554	-0.159057
42.2851	4560	-0.158638
42.3344	4566	-0.158459
42.3849	4572	-0.158113
42.4371	4578	-0.157989
42.487	4584	-0.159136
42.5367	4590	-0.158275
42.5884	4596	-0.157212
42.639	4602	-0.157696
42.6892	4608	-0.157057
42.7394	4614	-0.158221
42.7908	4620	-0.158778
42.8414	4626	-0.15836
42.891	4632	-0.157261
42.9417	4638	-0.159014
42.9931	4644	-0.158596
43.0437	4650	-0.158251
43.0938	4656	-0.158403
43.1446	4662	-0.160285
43.1956	4668	-0.158082
43.246	4674	-0.158897
43.296	4680	-0.159067
43.3473	4686	-0.158999
43.3982	4692	-0.158857
43.4477	4698	-0.158421
43.4983	4704	-0.159143
43.5497	4710	-0.158413
43.6003	4716	-0.159098
43.6503	4722	-0.159434
43.7008	4728	-0.158594
43.7522	4734	-0.15882
43.8025	4740	-0.158825
43.8527	4746	-0.161403
43.9043	4752	-0.160379
43.9545	4758	-0.159172
44.0043	4764	-0.159562
44.0553	4770	-0.158741
44.1064	4776	-0.159739
44.1569	4782	-0.159744
44.2069	4788	-0.1594
44.2582	4794	-0.159479
44.3088	4800	-0.159173
44.3588	4806	-0.159931
44.4093	4812	-0.158982
44.461	4818	-0.159373
44.5112	4824	-0.160076
44.5615	4830	-0.160173
44.6125	4836	-0.160178
44.6633	4842	-0.159413
44.7132	4848	-0.159529
44.7638	4854	-0.160617
44.8149	4860	-0.161173
44.8666	4866	-0.161399
44.9166	4872	-0.160725
44.9661	4878	-0.161043
45.0176	4884	-0.160681
45.0686	4890	-0.161292
45.1184	4896	-0.16161
45.1686	4902	-0.159158
45.2201	4908	-0.161071
45.2704	4914	-0.161058
45.3215	4920	-0.159817
45.373	4926	-0.159493
45.4233	4932	-0.160361
45.473	4938	-0.16066
45.5236	4944	-0.161673
45.5745	4950	-0.160781
45.625	4956	-0.161116
45.6755	4962	-0.159911
45.7262	4968	-0.156417
45.7769	4974	-0.156113
45.8268	4980	-0.156522
45.8774	4986	-0.158378
45.9286	4992	-0.157798
45.9792	4998	-0.159325
46.0295	5004	-0.15924
46.0801	5010	-0.161058
46.1308	5016	-0.161119
46.1811	5022	-0.160851
46.2314	5028	-0.161132
46.2825	5034	-0.162968
46.3333	5040	-0.162937
46.3838	5046	-0.163364
46.4338	5052	-0.163919
46.4851	5058	-0.164254
46.536	5064	-0.162613
46.5858	5070	-0.163095
46.6358	5076	-0.164181
46.6871	5082	-0.164169
46.7384	5088	-0.163553
46.788	5094	-0.163961
46.8389	5100	-0.16426
46.8899	5106	-0.163444
46.9399	5112	-0.164675
46.9921	5118	-0.163419
47.0515	5124	-0.163937
47.1054	5130	-0.16345
47.1525	5136	-0.163968
47.2021	5142	-0.163426
47.2545	5148	-0.161495
47.3044	5154	-0.160679
47.3528	5160	-0.162001
47.4028	5166	-0.162483
47.4551	5172	-0.162051
47.5048	5178	-0.162203
47.5538	5184	-0.161753
47.6038	5190	-0.161504
47.6555	5196	-0.160652
47.7061	5202	-0.161261
47.756	5208	-0.161633
47.8071	5214	-0.16069
47.859	5220	-0.161427
47.9081	5226	-0.161361
47.9581	5232	-0.162774
48.0088	5238	-0.161229
48.0584	5244	-0.160779
48.108	5250	-0.162173
48.1591	5256	-0.1626
48.2098	5262	-0.16153
48.2588	5268	-0.161847
48.3101	5274	-0.161854
48.3611	5280	-0.161094
48.411	5286	-0.161849
48.4603	5292	-0.161838
48.5118	5298	-0.161918
48.5624	5304	-0.161651
48.6126	5310	-0.161968
48.6639	5316	-0.161756
48.7145	5322	-0.161708
48.7643	5328	-0.162171
48.8146	5334	-0.161923
48.866	5340	-0.160526
48.9172	5346	-0.161481
48.9675	5352	-0.162254
49.0182	5358	-0.161477
49.0687	5364	-0.160901
49.1188	5370	-0.159523
49.1691	5376	-0.160915
49.2194	5382	-0.159592
49.2691	5388	-0.16042
49.3202	5394	-0.159899
49.371	5400	-0.160708
49.4217	5406	-0.159512
49.4718	5412	-0.159994
49.5219	5418	-0.159874
49.5728	5424	-0.161284
49.6236	5430	-0.159451
49.6737	5436	-0.159076
49.7236	5442	-0.16045
49.7741	5448	-0.159474
49.8259	5454	-0.161503
49.8763	5460	-0.160418
49.926	5466	-0.159769
49.9761	5472	-0.160251
50.0271	5478	-0.160932
50.0776	5484	-0.161194
50.1277	5490	-0.161421
50.1786	5496	-0.161228
50.2291	5502	-0.16089
50.2794	5508	-0.161678
50.3303	5514	-0.157827
50.3821	5520	-0.158747
50.4323	5526	-0.16063
50.4822	5532	-0.16293
50.5332	5538	-0.163556
50.5838	5544	-0.164547
50.6347	5550	-0.163517
50.6849	5556	-0.163961
50.7358	5562	-0.163514
50.7867	5568	-0.162284
50.8373	5574	-0.160217
50.8875	5580	-0.157606
50.9381	5586	-0.15787
50.9887	5592	-0.159316
51.0392	5598	-0.161998
51.0898	5604	-0.166424
51.1415	5610	-0.166977
51.1921	5616	-0.16693
51.2428	5622	-0.166538
51.2941	5628	-0.165982
51.344	5634	-0.165081
51.3942	5640	-0.164671
51.4448	5646	-0.163734
51.4955	5652	-0.163705
51.5463	5658	-0.164567
51.5972	5664	-0.162031
51.6566	5670	-0.162257
51.7105	5676	-0.163174
51.7485	5682	-0.161057
51.7947	5688	-0.161156
51.85	5694	-0.161691
51.9008	5700	-0.160773
51.9487	5706	-0.160109
51.9998	5712	-0.161443
52.0514	5718	-0.160961
52.1016	5724	-0.159154
52.1591	5730	-0.160233
52.2168	5736	-0.159679
52.2658	5742	-0.160632
52.3123	5748	-0.15924
52.3557	5754	-0.156253
52.4016	5760	-0.156226
52.4535	5766	-0.15678
52.5055	5772	-0.15746
52.5554	5778	-0.15667
52.6061	5784	-0.158313
52.6563	5790	-0.159047
52.7077	5796	-0.160218
52.7584	5802	-0.159955
52.8087	5808	-0.161959
52.8589	5814	-0.162784
52.9104	5820	-0.162593
52.9622	5826	-0.162548
53.0119	5832	-0.163627
53.0616	5838	-0.165322
53.1131	5844	-0.164261
53.1645	5850	-0.16456
53.2141	5856	-0.165349
53.2659	5862	-0.164723
53.317	5868	-0.165511
53.3662	5874	-0.166119
53.4167	5880	-0.165057
53.4679	5886	-0.165157
53.5204	5892	-0.165782
53.5699	5898	-0.164576
53.622	5904	-0.163371
53.6836	5910	-0.163108
53.7363	5916	-0.163135
53.7826	5922	-0.163597
53.8324	5928	-0.162917
53.8849	5934	-0.163162
53.9346	5940	-0.163099
53.9835	5946	-0.163561
54.0343	5952	-0.162138
54.0853	5958	-0.163253
54.134	5964	-0.163987
54.1842	5970	-0.16097
54.2351	5976	-0.160798
54.286	5982	-0.159993
54.3344	5988	-0.159893
54.3853	5994	-0.161533
54.4369	6000	-0.161126
54.4866	6006	-0.16061
54.5352	6012	-0.161561
54.5868	6018	-0.161534
54.6377	6024	-0.16091
54.6872	6030	-0.162042
54.7372	6036	-0.161309
54.7882	6042	-0.160758
54.8386	6048	-0.160804
54.8886	6054	-0.157844
54.9391	6060	-0.158614
54.9896	6066	-0.159873
55.0399	6072	-0.160987
55.0897	6078	-0.160544
55.1407	6084	-0.161042
55.1917	6090	-0.16145
55.2417	6096	-0.162057
55.2916	6102	-0.161868
55.3426	6108	-0.161715
55.3931	6114	-0.160874
55.4435	6120	-0.160269
55.4936	6126	-0.160514
55.5452	6132	-0.160813
55.5954	6138	-0.160443
55.6448	6144	-0.158355
55.6959	6150	-0.160011
55.7471	6156	-0.16107
55.7973	6162	-0.16146
55.847	6168	-0.162247
55.8983	6174	-0.1611
55.9492	6180	-0.160767
55.9994	6186	-0.160686
56.0491	6192	-0.159828
56.1008	6198	-0.159947
56.1512	6204	-0.16238
56.2009	6210	-0.162408
56.2518	6216	-0.160972
56.3024	6222	-0.160819
56.3534	6228	-0.161065
56.4037	6234	-0.160551
56.4535	6240	-0.160434
56.5052	6246	-0.162252
56.556	6252	-0.161034
56.6055	6258	-0.160935
56.6559	6264	-0.161398
56.7076	6270	-0.161318
56.7574	6276	-0.161057
56.808	6282	-0.160001
56.8593	6288	-0.161006
56.9095	6294	-0.160582
56.9598	6300	-0.160936
57.0109	6306	-0.160766
57.0612	6312	-0.1613
57.1117	6318	-0.160769
57.1626	6324	-0.160725
57.2135	6330	-0.161224
57.2634	6336	-0.160801
57.3135	6342	-0.160595
57.3653	6348	-0.160804
57.4161	6354	-0.160761
57.4657	6360	-0.161602
57.5159	6366	-0.161378
57.567	6372	-0.159673
57.6186	6378	-0.160479
57.6685	6384	-0.161194
57.7183	6390	-0.160771
57.7691	6396	-0.160096
57.8205	6402	-0.161352
57.871	6408	-0.161851
57.9208	6414	-0.160038
57.9718	6420	-0.161403
58.0228	6426	-0.162515
58.0724	6432	-0.162021
58.1237	6438	-0.162032
58.1749	6444	-0.161609
58.2245	6450	-0.161802
58.2747	6456	-0.163293
58.3259	6462	-0.166534
58.3769	6468	-0.165696
58.4274	6474	-0.164787
58.4774	6480	-0.164347
58.5287	6486	-0.163348
58.5789	6492	-0.162763
58.6293	6498	-0.1607
58.6799	6504	-0.159268
58.731	6510	-0.160452
58.7809	6516	-0.159651
58.8314	6522	-0.158508
58.8832	6528	-0.15769
58.9335	6534	-0.158802
58.9835	6540	-0.158795
59.0338	6546	-0.157562
59.085	6552	-0.156888
59.1352	6558	-0.157188
59.1859	6564	-0.156785
59.2369	6570	-0.156545
59.2875	6576	-0.158017
59.3371	6582	-0.157217
59.3879	6588	-0.156778
59.4386	6594	-0.156177
59.4898	6600	-0.157865
59.54	6606	-0.157678
59.5861	6612	-0.158411
59.6312	6618	-0.158838
59.6821	6624	-0.158759
59.7352	6630	-0.157996
59.7851	6636	-0.158657
59.8353	6642	-0.159227
59.8861	6648	-0.158914
59.9386	6654	-0.158007
59.9896	6660	-0.159064
60.0395	6666	-0.15877
60.0906	6672	-0.159629
60.1423	6678	-0.160325
60.1928	6684	-0.160031
60.2438	6690	-0.15952
60.2944	6696	-0.160181
60.3457	6702	-0.160085
60.3966	6708	-0.162187
60.4473	6714	-0.161532
60.4989	6720	-0.160535
60.5498	6726	-0.162241
60.6	6732	-0.16146
60.65	6738	-0.160464
60.7021	6744	-0.159269
60.7526	6750	-0.161136
60.8027	6756	-0.161095
60.8549	6762	-0.160458
60.9059	6768	-0.160921
60.9553	6774	-0.160429
61.0056	6780	-0.160297
61.0579	6786	-0.159445
61.1088	6792	-0.159998
61.1578	6798	-0.15875
61.2084	6804	-0.159734
61.2603	6810	-0.159117
61.3121	6816	-0.158409
61.3612	6822	-0.159106
61.412	6828	-0.157282
61.4641	6834	-0.160031
61.514	6840	-0.160493
61.5638	6846	-0.158364
61.6151	6852	-0.15933
61.6667	6858	-0.158263
61.716	6864	-0.159356
61.7663	6870	-0.161312
61.8178	6876	-0.161307
61.8691	6882	-0.162093
61.9184	6888	-0.162178
61.9692	6894	-0.161255
62.0215	6900	-0.160458
62.0716	6906	-0.16128
62.1206	6912	-0.160591
62.1718	6918	-0.160748
62.2229	6924	-0.16193
62.2729	6930	-0.16036
62.3237	6936	-0.159563
62.3754	6942	-0.159288
62.4252	6948	-0.159859
62.4756	6954	-0.158577
62.5265	6960	-0.159453
62.5768	6966	-0.160006
62.6272	6972	-0.159084
62.679	6978	-0.15996
62.7292	6984	-0.160495
62.7788	6990	-0.160975
62.8296	6996	-0.160593
62.8812	7002	-0.159041
62.9318	7008	-0.15981
62.9822	7014	-0.15932
63.0326	7020	-0.159566
63.0834	7026	-0.159562
63.1334	7032	-0.158694
63.1832	7038	-0.158096
63.2357	7044	-0.158109
63.286	7050	-0.158231
63.3364	7056	-0.159862
63.3871	7062	-0.160361
63.4374	7068	-0.15935
63.4879	7074	-0.160819
63.5385	7080	-0.160365
63.5896	7086	-0.160918
63.6408	7092	-0.159853
63.6905	7098	-0.159867
63.7403	7104	-0.15864
63.792	7110	-0.159139
63.8427	7116	-0.158415
63.8935	7122	-0.15886
63.9436	7128	-0.157292
63.994	7134	-0.158151
64.0453	7140	-0.157805
64.0958	7146	-0.158322
64.1456	7152	-0.158048
64.1964	7158	-0.159248
64.2482	7164	-0.159442
64.2975	7170	-0.16066
64.3482	7176	-0.159847
64.4	7182	-0.159322
64.4503	7188	-0.159371
64.5	7194	-0.159601
64.5501	7200	-0.158321