File: rawdata/buffer_heating3
H2O_H2O
Furnace temperature 	Time	HeatFlow
/°C	/s	/mW
8.23399	0.000000000	0.110581
8.12091	6	0.112811
8.00274	12	0.113517
7.9048	18	0.113025
7.79438	24	0.1107
7.66578	30	0.11059
7.52506	36	0.11302
7.36423	42	0.117726
7.18727	48	0.127923
7.0002	54	0.142248
6.81123	60	0.163812
6.62852	66	0.19418
6.46193	72	0.227936
6.30978	78	0.263526
6.17678	84	0.301377
6.06337	90	0.337377
5.96708	96	0.369777
5.88642	102	0.397764
5.82046	108	0.420875
5.76759	114	0.439866
5.72652	120	0.451732
5.69632	126	0.459672
5.67481	132	0.462486
5.66135	138	0.461276
5.65507	144	0.45698
5.65517	150	0.449702
5.66091	156	0.439243
5.67158	162	0.427327
5.57803	168	0.413553
5.48631	174	0.398385
5.39408	180	0.382191
5.30435	186	0.366046
5.22046	192	0.348674
5.14413	198	0.330541
5.08115	204	0.312802
5.03517	210	0.295132
5.00877	216	0.277268
5.00238	222	0.260162
5.01454	228	0.243227
5.03984	234	0.225731
5.07922	240	0.210247
5.1275	246	0.194547
5.18156	252	0.180028
5.24121	258	0.165111
5.30558	264	0.151413
5.37283	270	0.137378
5.44237	276	0.124036
5.51324	282	0.11189
5.5834	288	0.0998914
5.65559	294	0.0885842
5.72851	300	0.0784323
5.80165	306	0.0681836
5.87458	312	0.0577571
5.94664	318	0.0489895
6.01904	324	0.0397409
6.09047	330	0.032291
6.16262	336	0.0243196
6.23439	342	0.0172988
6.30534	348	0.0102201
6.37495	354	0.003486697
6.44417	360	-0.001148587
6.51266	366	-0.006467190
6.58062	372	-0.0129522
6.64794	378	-0.0178841
6.71432	384	-0.0219283
6.7802	390	-0.0266354
6.84668	396	-0.0313208
6.91215	402	-0.0346963
6.97681	408	-0.0387549
7.04038	414	-0.0415245
7.10354	420	-0.0453189
7.16593	426	-0.0487903
7.22749	432	-0.0505514
7.28781	438	-0.0538598
7.34886	444	-0.0557804
7.40957	450	-0.0585844
7.46934	456	-0.0604833
7.52846	462	-0.0627232
7.5872	468	-0.0643798
7.64598	474	-0.0663973
7.70351	480	-0.066908
7.76133	486	-0.0686834
7.8186	492	-0.0697356
7.8755	498	-0.0705465
7.93196	504	-0.0705949
7.98871	510	-0.0716464
8.04479	516	-0.0725168
8.10033	522	-0.0729858
8.15573	528	-0.0742972
8.21092	534	-0.0740843
8.26588	540	-0.0747133
8.32078	546	-0.0751016
8.37502	552	-0.0754298
8.4296	558	-0.0763389
8.48389	564	-0.0764866
8.53766	570	-0.0775956
8.59124	576	-0.0771021
8.64513	582	-0.0774096
8.69882	588	-0.0781976
8.75194	594	-0.0778645
8.8053	600	-0.0784521
8.85774	606	-0.0779789
8.91113	612	-0.0785864
8.96393	618	-0.0775934
9.01656	624	-0.0780008
9.06911	630	-0.0789078
9.12195	636	-0.0785951
9.17491	642	-0.0796417
9.22775	648	-0.079269
9.28095	654	-0.0786166
9.33397	660	-0.0784841
9.38616	666	-0.0783316
9.4383	672	-0.0779193
9.49125	678	-0.0782663
9.54414	684	-0.078673
9.59595	690	-0.078221
9.64793	696	-0.0776493
9.70055	702	-0.0786149
9.75294	708	-0.0776244
9.80482	714	-0.0773724
9.8566	720	-0.0780783
9.90809	726	-0.0779661
9.96007	732	-0.0779535
10.012	738	-0.0783198
10.0641	744	-0.0773305
10.1158	750	-0.0776371
10.1671	756	-0.0775249
10.2185	762	-0.0781901
10.2705	768	-0.077062
10.3218	774	-0.0781652
10.3729	780	-0.0781925
10.4242	786	-0.0776424
10.4758	792	-0.0772718
10.5271	798	-0.0772594
10.5785	804	-0.0771476
10.6296	810	-0.077056
10.6812	816	-0.0764665
10.7318	822	-0.0773297
10.7828	828	-0.0774767
10.8344	834	-0.0778423
10.885	840	-0.0777107
10.9361	846	-0.07742
10.9875	852	-0.0771694
11.0391	858	-0.0773162
11.0894	864	-0.0769463
11.1407	870	-0.0772125
11.1922	876	-0.0772798
11.2424	882	-0.0768106
11.2931	888	-0.0769574
11.3447	894	-0.0772036
11.3958	900	-0.0775488
11.4461	906	-0.0772786
11.4969	912	-0.0776635
11.5484	918	-0.077691
11.599	924	-0.07752
11.6497	930	-0.0776268
11.7008	936	-0.0770396
11.7519	942	-0.077345
11.8027	948	-0.0776104
11.8531	954	-0.0772811
11.9045	960	-0.0777845
11.9555	966	-0.0779508
12.0054	972	-0.0788105
12.057	978	-0.0776887
12.1081	984	-0.0787466
12.1586	990	-0.0778429
12.2093	996	-0.0779891
12.2601	1002	-0.0780366
12.3112	1008	-0.0782027
12.3613	1014	-0.0786656
12.4124	1020	-0.0781388
12.4629	1026	-0.0786612
12.5133	1032	-0.0792821
12.5643	1038	-0.0785773
12.6156	1044	-0.0785851
12.6664	1050	-0.0785336
12.7166	1056	-0.0788377
12.7675	1062	-0.0785882
12.8184	1068	-0.0791099
12.8689	1074	-0.0791768
12.9197	1080	-0.0792634
12.9708	1086	-0.0790734
13.022	1092	-0.0797925
13.072	1098	-0.078753
13.1226	1104	-0.0797677
13.1739	1110	-0.0794397
13.2243	1116	-0.0786181
13.2749	1122	-0.0794154
13.3256	1128	-0.080469
13.3767	1134	-0.079332
13.4272	1140	-0.0799709
13.4774	1146	-0.0791104
13.5285	1152	-0.0800452
13.5798	1158	-0.0806246
13.6298	1164	-0.0802179
13.6806	1170	-0.0802058
13.7317	1176	-0.0807062
13.7823	1182	-0.0803785
13.8323	1188	-0.0806027
13.8834	1194	-0.0810044
13.9347	1200	-0.0813665
13.985	1206	-0.0806646
14.035	1212	-0.0809675
14.0862	1218	-0.0808569
14.1375	1224	-0.0812779
14.1878	1230	-0.0816001
14.2384	1236	-0.0824539
14.2892	1242	-0.0809852
14.3399	1248	-0.0819568
14.3897	1254	-0.0819444
14.4411	1260	-0.0813616
14.4923	1266	-0.0825099
14.5423	1272	-0.0823794
14.5929	1278	-0.0821311
14.644	1284	-0.0826104
14.6948	1290	-0.0821655
14.745	1296	-0.082271
14.7961	1302	-0.0829466
14.8466	1308	-0.0838185
14.8972	1314	-0.0832754
14.9482	1320	-0.0840878
14.9988	1326	-0.0832703
15.0494	1332	-0.0832186
15.0997	1338	-0.0830881
15.1508	1344	-0.0837824
15.2017	1350	-0.0834953
15.252	1356	-0.0835221
15.3025	1362	-0.0838235
15.3538	1368	-0.0839485
15.4045	1374	-0.084093
15.4544	1380	-0.0843354
15.505	1386	-0.0846758
15.5564	1392	-0.08433
15.6069	1398	-0.0845138
15.657	1404	-0.0855595
15.7082	1410	-0.0842336
15.759	1416	-0.084868
15.8096	1422	-0.0854826
15.8599	1428	-0.0855284
15.911	1434	-0.0853004
15.9616	1440	-0.0855817
16.0116	1446	-0.0860782
16.0625	1452	-0.0863199
16.1136	1458	-0.0861507
16.1638	1464	-0.0865883
16.2141	1470	-0.0865363
16.2652	1476	-0.0865626
16.3162	1482	-0.0867263
16.366	1488	-0.0867918
16.4166	1494	-0.0865833
16.4683	1500	-0.087216
16.5192	1506	-0.087575
16.569	1512	-0.086956
16.6199	1518	-0.0870801
16.6709	1524	-0.0877905
16.7212	1530	-0.0874456
16.7714	1536	-0.088097
16.8226	1542	-0.087967
16.8736	1548	-0.0880716
16.9241	1554	-0.088215
16.9737	1560	-0.0879286
17.0251	1566	-0.0879355
17.0767	1572	-0.0884304
17.1264	1578	-0.0884955
17.1765	1584	-0.0884046
17.2284	1590	-0.0888797
17.2788	1596	-0.0894718
17.3288	1602	-0.0896733
17.3799	1608	-0.0893872
17.4307	1614	-0.08955
17.4813	1620	-0.0899661
17.5315	1626	-0.089758
17.5827	1632	-0.0896476
17.6337	1638	-0.0897908
17.6832	1644	-0.0901091
17.7339	1650	-0.0897648
17.7855	1656	-0.0899858
17.836	1662	-0.0901483
17.8857	1668	-0.0898432
17.9369	1674	-0.0893044
17.9879	1680	-0.0904989
18.0384	1686	-0.0902134
18.0887	1692	-0.0906092
18.1402	1698	-0.0908883
18.1905	1704	-0.0905641
18.2405	1710	-0.0906289
18.2911	1716	-0.0910632
18.3425	1722	-0.0910892
18.3929	1728	-0.0911931
18.4432	1734	-0.0909661
18.4941	1740	-0.0919252
18.5452	1746	-0.091232
18.5953	1752	-0.0915106
18.6456	1758	-0.0932273
18.6965	1764	-0.0916206
18.7476	1770	-0.0926763
18.7977	1776	-0.0918474
18.8481	1782	-0.0922422
18.8996	1788	-0.0925788
18.9501	1794	-0.0919638
19.0002	1800	-0.0926109
19.0509	1806	-0.0932773
19.1021	1812	-0.0927595
19.1522	1818	-0.0933482
19.2026	1824	-0.0936841
19.2533	1830	-0.093283
19.3048	1836	-0.0936969
19.355	1842	-0.0941492
19.4057	1848	-0.0932632
19.4563	1854	-0.0942974
19.5069	1860	-0.0937995
19.557	1866	-0.0949495
19.6082	1872	-0.0946454
19.6595	1878	-0.0942641
19.71	1884	-0.095433
19.7598	1890	-0.0950126
19.811	1896	-0.0950963
19.8622	1902	-0.0948121
19.912	1908	-0.0953992
19.9626	1914	-0.0957925
20.0134	1920	-0.0949856
20.0641	1926	-0.0958823
20.1146	1932	-0.0956945
20.1649	1938	-0.0956813
20.216	1944	-0.0963648
20.2664	1950	-0.0961581
20.3169	1956	-0.0963962
20.3679	1962	-0.0964022
20.4186	1968	-0.0966598
20.4691	1974	-0.0964144
20.5195	1980	-0.0977352
20.5709	1986	-0.0977412
20.6213	1992	-0.0968965
20.6714	1998	-0.0970377
20.7223	2004	-0.097179
20.7733	2010	-0.0970498
20.8231	2016	-0.0980218
20.874	2022	-0.0980469
20.9247	2028	-0.0978597
20.9757	2034	-0.0987926
21.0256	2040	-0.0991072
21.0763	2046	-0.0985532
21.1279	2052	-0.0974783
21.178	2058	-0.0992986
21.2281	2064	-0.0989181
21.2791	2070	-0.0995993
21.3302	2076	-0.0986986
21.3801	2082	-0.0993024
21.4305	2088	-0.100041
21.4821	2094	-0.099661
21.5327	2100	-0.0996669
21.5829	2106	-0.100521
21.6331	2112	-0.10097
21.6843	2118	-0.1014
21.7352	2124	-0.100673
21.7851	2130	-0.101044
21.836	2136	-0.101647
21.8865	2142	-0.100998
21.937	2148	-0.101678
21.988	2154	-0.101876
22.0391	2160	-0.101862
22.0896	2166	-0.102369
22.1397	2172	-0.102624
22.1904	2178	-0.102707
22.2412	2184	-0.102096
22.2918	2190	-0.102583
22.3421	2196	-0.102896
22.3934	2202	-0.103114
22.4438	2208	-0.104023
22.4939	2214	-0.104009
22.5442	2220	-0.104053
22.5959	2226	-0.103943
22.6462	2232	-0.104718
22.6962	2238	-0.105376
22.7471	2244	-0.104401
22.7981	2250	-0.104138
22.8487	2256	-0.104835
22.8988	2262	-0.104994
22.9498	2268	-0.104807
23.0008	2274	-0.10512
23.0514	2280	-0.105759
23.1013	2286	-0.106436
23.1529	2292	-0.105693
23.2036	2298	-0.106082
23.2535	2304	-0.106548
23.3043	2310	-0.106246
23.3557	2316	-0.106443
23.4062	2322	-0.107043
23.4561	2328	-0.106971
23.507	2334	-0.107341
23.558	2340	-0.107173
23.6085	2346	-0.10737
23.6585	2352	-0.106628
23.7095	2358	-0.108148
23.7602	2364	-0.108555
23.8104	2370	-0.107851
23.8612	2376	-0.108086
23.9119	2382	-0.108474
23.9623	2388	-0.109303
24.0126	2394	-0.108139
24.0637	2400	-0.108355
24.1146	2406	-0.10972
24.1645	2412	-0.109878
24.2151	2418	-0.109443
24.2664	2424	-0.109716
24.3168	2430	-0.110468
24.3669	2436	-0.109994
24.418	2442	-0.110171
24.4688	2448	-0.11075
24.5189	2454	-0.110946
24.5695	2460	-0.110893
24.6209	2466	-0.111109
24.6714	2472	-0.109679
24.7212	2478	-0.110583
24.7719	2484	-0.111448
24.8229	2490	-0.111759
24.8735	2496	-0.11228
24.9238	2502	-0.111788
24.9746	2508	-0.111735
25.0254	2514	-0.112314
25.0759	2520	-0.11207
25.1266	2526	-0.111788
25.1774	2532	-0.112347
25.2281	2538	-0.112543
25.2782	2544	-0.114018
25.3289	2550	-0.113793
25.3802	2556	-0.112805
25.4302	2562	-0.113879
25.481	2568	-0.114227
25.5317	2574	-0.113831
25.5825	2580	-0.114523
25.6328	2586	-0.114947
25.6831	2592	-0.115104
25.7345	2598	-0.115052
25.7849	2604	-0.115075
25.8349	2610	-0.11527
25.8857	2616	-0.11619
25.9369	2622	-0.114574
25.9871	2628	-0.115131
26.0378	2634	-0.115861
26.089	2640	-0.114112
26.1394	2646	-0.116003
26.1894	2652	-0.115436
26.2401	2658	-0.116964
26.2917	2664	-0.118017
26.3418	2670	-0.11743
26.3915	2676	-0.117511
26.4427	2682	-0.11803
26.4941	2688	-0.117977
26.5441	2694	-0.117124
26.5943	2700	-0.1173
26.6456	2706	-0.118599
26.6962	2712	-0.118223
26.7465	2718	-0.118341
26.7969	2724	-0.117604
26.8483	2730	-0.118407
26.8986	2736	-0.118601
26.9489	2742	-0.118169
26.9998	2748	-0.118496
27.0506	2754	-0.119204
27.1007	2760	-0.11898
27.1517	2766	-0.119422
27.2028	2772	-0.118989
27.2529	2778	-0.118746
27.3034	2784	-0.119967
27.3546	2790	-0.119458
27.4046	2796	-0.119026
27.4552	2802	-0.119771
27.5065	2808	-0.119984
27.5574	2814	-0.120331
27.6076	2820	-0.120601
27.6577	2826	-0.120149
27.7092	2832	-0.120932
27.7593	2838	-0.120804
27.8096	2844	-0.121396
27.8604	2850	-0.122596
27.9115	2856	-0.12186
27.9615	2862	-0.120612
28.0119	2868	-0.12166
28.0633	2874	-0.122366
28.1143	2880	-0.122579
28.1636	2886	-0.122962
28.2146	2892	-0.121867
28.2662	2898	-0.122458
28.316	2904	-0.121951
28.3664	2910	-0.122258
28.4178	2916	-0.123475
28.4681	2922	-0.123631
28.5185	2928	-0.124128
28.5686	2934	-0.124094
28.6202	2940	-0.124591
28.6707	2946	-0.124746
28.721	2952	-0.124106
28.7711	2958	-0.123164
28.8223	2964	-0.124134
28.8728	2970	-0.125425
28.9231	2976	-0.125051
28.9742	2982	-0.124865
29.0247	2988	-0.12487
29.0751	2994	-0.126009
29.1255	3000	-0.126694
29.1771	3006	-0.125752
29.2271	3012	-0.126494
29.2772	3018	-0.126309
29.3282	3024	-0.126502
29.3793	3030	-0.12643
29.4292	3036	-0.12685
29.48	3042	-0.127308
29.5309	3048	-0.127406
29.5811	3054	-0.125936
29.6316	3060	-0.127206
29.6827	3066	-0.127494
29.7336	3072	-0.128008
29.7837	3078	-0.128238
29.8344	3084	-0.127694
29.8848	3090	-0.128718
29.9357	3096	-0.12842
29.9859	3102	-0.128273
30.0369	3108	-0.1289
30.0875	3114	-0.128961
30.1375	3120	-0.128549
30.1888	3126	-0.129515
30.2395	3132	-0.129029
30.2896	3138	-0.129901
30.3404	3144	-0.130489
30.3911	3150	-0.130154
30.4422	3156	-0.130139
30.4923	3162	-0.130369
30.5423	3168	-0.130674
30.5939	3174	-0.131206
30.6447	3180	-0.131964
30.6943	3186	-0.131666
30.745	3192	-0.130897
30.7965	3198	-0.131203
30.8472	3204	-0.131489
30.8976	3210	-0.131267
30.9479	3216	-0.132156
30.9989	3222	-0.130559
31.0494	3228	-0.131486
31.0998	3234	-0.13245
31.1509	3240	-0.13219
31.2012	3246	-0.132797
31.2516	3252	-0.13297
31.3022	3258	-0.13254
31.3528	3264	-0.133598
31.4037	3270	-0.134035
31.4539	3276	-0.133154
31.5048	3282	-0.132932
31.5559	3288	-0.13367
31.606	3294	-0.133655
31.6564	3300	-0.134373
31.7073	3306	-0.134132
31.7581	3312	-0.134136
31.8081	3318	-0.134366
31.859	3324	-0.134576
31.91	3330	-0.134956
31.9603	3336	-0.134377
32.0107	3342	-0.134512
32.0618	3348	-0.134892
32.1123	3354	-0.135948
32.1623	3360	-0.135144
32.2134	3366	-0.135636
32.2645	3372	-0.134231
32.3148	3378	-0.135531
32.3652	3384	-0.135854
32.4159	3390	-0.134881
32.4673	3396	-0.133984
32.5171	3402	-0.135565
32.5674	3408	-0.135362
32.6186	3414	-0.135516
32.6691	3420	-0.135051
32.7195	3426	-0.136875
32.7702	3432	-0.136447
32.8213	3438	-0.135776
32.8716	3444	-0.136474
32.9214	3450	-0.136496
32.9726	3456	-0.137663
33.0236	3462	-0.13716
33.0737	3468	-0.136395
33.1243	3474	-0.136643
33.1753	3480	-0.137172
33.2258	3486	-0.137138
33.2757	3492	-0.13791
33.3269	3498	-0.138982
33.3779	3504	-0.137824
33.4276	3510	-0.138259
33.4781	3516	-0.137682
33.5292	3522	-0.139465
33.5802	3528	-0.138589
33.6303	3534	-0.139361
33.6813	3540	-0.13987
33.7325	3546	-0.138919
33.7824	3552	-0.139072
33.8324	3558	-0.139956
33.8841	3564	-0.140296
33.9345	3570	-0.139739
33.9846	3576	-0.140098
34.0351	3582	-0.141094
34.0867	3588	-0.140162
34.1371	3594	-0.140334
34.187	3600	-0.140001
34.2379	3606	-0.140622
34.2887	3612	-0.140514
34.339	3618	-0.139601
34.3901	3624	-0.140465
34.4405	3630	-0.140076
34.4911	3636	-0.14124
34.5414	3642	-0.140851
34.592	3648	-0.141733
34.643	3654	-0.140709
34.6939	3660	-0.140694
34.7436	3666	-0.140847
34.7944	3672	-0.141019
34.8453	3678	-0.141789
34.8958	3684	-0.142391
34.9463	3690	-0.142133
34.9969	3696	-0.142286
35.0479	3702	-0.142925
35.0976	3708	-0.141454
35.1485	3714	-0.141514
35.2002	3720	-0.140958
35.2503	3726	-0.142418
35.3003	3732	-0.143541
35.3507	3738	-0.142575
35.4022	3744	-0.141795
35.4527	3750	-0.143254
35.5027	3756	-0.143874
35.5539	3762	-0.144437
35.6046	3768	-0.143621
35.6543	3774	-0.144221
35.7052	3780	-0.14333
35.7565	3786	-0.144658
35.8067	3792	-0.144755
35.8569	3798	-0.145653
35.9078	3804	-0.145061
35.959	3810	-0.144916
36.0091	3816	-0.143987
36.0598	3822	-0.144811
36.1106	3828	-0.145691
36.1616	3834	-0.14536
36.2112	3840	-0.145997
36.2622	3846	-0.14641
36.3135	3852	-0.146005
36.3636	3858	-0.145226
36.4136	3864	-0.14577
36.4645	3870	-0.145141
36.5157	3876	-0.145927
36.5657	3882	-0.146098
36.6165	3888	-0.145786
36.6674	3894	-0.146851
36.7177	3900	-0.146259
36.7681	3906	-0.147026
36.819	3912	-0.147644
36.8697	3918	-0.147741
36.9201	3924	-0.146238
36.9704	3930	-0.147674
37.0216	3936	-0.146897
37.0723	3942	-0.146362
37.1222	3948	-0.146626
37.1729	3954	-0.147225
37.224	3960	-0.148178
37.2747	3966	-0.148497
37.3249	3972	-0.147182
37.3761	3978	-0.148896
37.4266	3984	-0.148268
37.4765	3990	-0.149034
37.5272	3996	-0.147941
37.5785	4002	-0.149042
37.6287	4008	-0.149436
37.6785	4014	-0.148752
37.73	4020	-0.148626
37.7808	4026	-0.147906
37.831	4032	-0.150528
37.881	4038	-0.150087
37.9328	4044	-0.150202
37.9834	4050	-0.149612
38.0331	4056	-0.149505
38.0835	4062	-0.151105
38.1355	4068	-0.150126
38.1857	4074	-0.150334
38.2353	4080	-0.150783
38.2857	4086	-0.149785
38.3379	4092	-0.150216
38.3883	4098	-0.15061
38.4378	4104	-0.151022
38.4889	4110	-0.150841
38.5396	4116	-0.151865
38.5901	4122	-0.152239
38.6408	4128	-0.152188
38.6916	4134	-0.152044
38.7423	4140	-0.152455
38.7925	4146	-0.151514
38.8433	4152	-0.152612
38.8939	4158	-0.152153
38.9443	4164	-0.151564
38.9953	4170	-0.151716
39.0457	4176	-0.152091
39.0962	4182	-0.152595
39.1465	4188	-0.151599
39.1978	4194	-0.151418
39.2479	4200	-0.153182
39.2986	4206	-0.153167
39.3493	4212	-0.151838
39.4004	4218	-0.152991
39.4502	4224	-0.152588
39.5002	4230	-0.153332
39.5514	4236	-0.153466
39.6024	4242	-0.15347
39.6526	4248	-0.154493
39.7035	4254	-0.153683
39.7548	4260	-0.153798
39.8045	4266	-0.153821
39.8548	4272	-0.153566
39.9061	4278	-0.154884
39.9571	4284	-0.154111
40.0071	4290	-0.15369
40.0575	4296	-0.154674
40.1086	4302	-0.153958
40.1595	4308	-0.154424
40.2096	4314	-0.154817
40.2602	4320	-0.155191
40.3111	4326	-0.155121
40.3613	4332	-0.155569
40.4115	4338	-0.153873
40.4631	4344	-0.154691
40.514	4350	-0.155416
40.5641	4356	-0.155051
40.6143	4362	-0.155498
40.6652	4368	-0.154598
40.7161	4374	-0.155784
40.766	4380	-0.15553
40.8166	4386	-0.153559
40.8683	4392	-0.155632
40.9187	4398	-0.156873
40.9686	4404	-0.155308
41.0193	4410	-0.156734
41.0697	4416	-0.156665
41.1205	4422	-0.156614
41.1711	4428	-0.155511
41.2218	4434	-0.156715
41.2723	4440	-0.157476
41.3235	4446	-0.157333
41.3742	4452	-0.155973
41.4241	4458	-0.157047
41.4746	4464	-0.156369
41.5256	4470	-0.156909
41.576	4476	-0.15708
41.627	4482	-0.156863
41.6768	4488	-0.157181
41.7277	4494	-0.157314
41.7785	4500	-0.157375
41.8288	4506	-0.157914
41.8796	4512	-0.158342
41.9302	4518	-0.157665
41.9807	4524	-0.158683
42.0312	4530	-0.159406
42.0824	4536	-0.159448
42.1332	4542	-0.158845
42.1825	4548	-0.158831
42.2336	4554	-0.158578
42.2848	4560	-0.158472
42.3354	4566	-0.157445
42.3855	4572	-0.157358
42.4364	4578	-0.158652
42.4877	4584	-0.158565
42.5373	4590	-0.158441
42.588	4596	-0.157893
42.6389	4602	-0.158211
42.6899	4608	-0.159707
42.7392	4614	-0.158884
42.7905	4620	-0.158392
42.842	4626	-0.157495
42.8918	4632	-0.159837
42.9417	4638	-0.158958
42.9933	4644	-0.158945
43.0434	4650	-0.159723
43.0943	4656	-0.159121
43.1446	4662	-0.159438
43.1953	4668	-0.159572
43.2462	4674	-0.159614
43.2962	4680	-0.16006
43.3475	4686	-0.16172
43.3987	4692	-0.1611
43.4482	4698	-0.159855
43.4985	4704	-0.160411
43.5496	4710	-0.159865
43.6007	4716	-0.160183
43.6509	4722	-0.161254
43.7012	4728	-0.161222
43.7522	4734	-0.161227
43.8025	4740	-0.160773
43.8527	4746	-0.161127
43.9041	4752	-0.160856
43.9545	4758	-0.160752
44.0052	4764	-0.160573
44.0554	4770	-0.160505
44.1063	4776	-0.161373
44.1573	4782	-0.162627
44.2072	4788	-0.160686
44.2581	4794	-0.162068
44.3093	4800	-0.162441
44.3595	4806	-0.161069
44.4095	4812	-0.161809
44.4605	4818	-0.160859
44.5118	4824	-0.160938
44.5619	4830	-0.162504
44.6125	4836	-0.163078
44.6632	4842	-0.162404
44.714	4848	-0.161823
44.7647	4854	-0.161663
44.8156	4860	-0.161943
44.8657	4866	-0.162554
44.9158	4872	-0.162413
44.9664	4878	-0.161078
45.0169	4884	-0.158221
45.0688	4890	-0.158099
45.1186	4896	-0.157647
45.1683	4902	-0.158808
45.2197	4908	-0.160207
45.2711	4914	-0.160268
45.3206	4920	-0.159816
45.3712	4926	-0.162736
45.4224	4932	-0.162466
45.473	4938	-0.163773
45.523	4944	-0.164531
45.5734	4950	-0.163987
45.6248	4956	-0.165568
45.675	4962	-0.16572
45.7253	4968	-0.165983
45.7763	4974	-0.16608
45.8277	4980	-0.166928
45.8773	4986	-0.166384
45.9269	4992	-0.166408
45.9788	4998	-0.165571
46.0293	5004	-0.165888
46.0791	5010	-0.165656
46.1295	5016	-0.165002
46.1815	5022	-0.165411
46.2317	5028	-0.164813
46.2816	5034	-0.16491
46.3392	5040	-0.163763
46.3959	5046	-0.164684
46.4439	5052	-0.164323
46.4916	5058	-0.162737
46.5439	5064	-0.162707
46.5944	5070	-0.162804
46.6437	5076	-0.163872
46.6938	5082	-0.162341
46.7449	5088	-0.162567
46.795	5094	-0.161988
46.8445	5100	-0.163859
46.8938	5106	-0.162658
46.9435	5112	-0.162518
46.9933	5118	-0.162817
47.0437	5124	-0.163244
47.0911	5130	-0.163122
47.1399	5136	-0.162159
47.191	5142	-0.162732
47.2415	5148	-0.16325
47.2931	5154	-0.163988
47.3433	5160	-0.164524
47.3933	5166	-0.164566
47.4444	5172	-0.161997
47.4952	5178	-0.163465
47.5456	5184	-0.164184
47.596	5190	-0.16313
47.6472	5196	-0.163776
47.6972	5202	-0.16391
47.748	5208	-0.164611
47.799	5214	-0.163978
47.8503	5220	-0.164313
47.9001	5226	-0.164247
47.9509	5232	-0.164655
48.0011	5238	-0.164424
48.0523	5244	-0.16423
48.1029	5250	-0.16263
48.1531	5256	-0.164462
48.2047	5262	-0.164779
48.2549	5268	-0.163781
48.3052	5274	-0.163202
48.3559	5280	-0.160819
48.407	5286	-0.161866
48.4576	5292	-0.162202
48.5074	5298	-0.162374
48.5594	5304	-0.162343
48.6098	5310	-0.163007
48.6597	5316	-0.163689
48.7106	5322	-0.165302
48.7621	5328	-0.167625
48.8121	5334	-0.16723
48.8618	5340	-0.165851
48.913	5346	-0.16584
48.9645	5352	-0.166247
49.0141	5358	-0.166819
49.0651	5364	-0.166589
49.1163	5370	-0.165156
49.1659	5376	-0.164908
49.2172	5382	-0.165388
49.2676	5388	-0.16463
49.3184	5394	-0.165475
49.3686	5400	-0.164588
49.4201	5406	-0.16188
49.47	5412	-0.159282
49.5204	5418	-0.161257
49.5713	5424	-0.161392
49.6247	5430	-0.161909
49.6805	5436	-0.16301
49.7303	5442	-0.162999
49.7799	5448	-0.163698
49.8281	5454	-0.164125
49.8761	5460	-0.164551
49.9312	5466	-0.165232
49.9822	5472	-0.164602
50.0281	5478	-0.165629
50.0756	5484	-0.165727
50.127	5490	-0.165534
50.1788	5496	-0.16454
50.2291	5502	-0.164384
50.2788	5508	-0.16632
50.3295	5514	-0.166273
50.3806	5520	-0.165789
50.4311	5526	-0.165487
50.4819	5532	-0.166259
50.5323	5538	-0.165685
50.5831	5544	-0.16864
50.6327	5550	-0.1661
50.6862	5556	-0.166162
50.7424	5562	-0.167188
50.7936	5568	-0.167269
50.8417	5574	-0.168204
50.8925	5580	-0.167502
50.9435	5586	-0.16731
50.9933	5592	-0.167391
51.0433	5598	-0.16789
51.0948	5604	-0.168734
51.1446	5610	-0.168541
51.1954	5616	-0.168985
51.246	5622	-0.166975
51.297	5628	-0.167491
51.3468	5634	-0.165934
51.3984	5640	-0.163597
51.4497	5646	-0.162479
51.4995	5652	-0.162869
51.5492	5658	-0.162731
51.6004	5664	-0.162012
51.6519	5670	-0.163075
51.7012	5676	-0.165009
51.7511	5682	-0.164453
51.8023	5688	-0.163971
51.8519	5694	-0.16407
51.902	5700	-0.164805
51.9524	5706	-0.16534
52.0032	5712	-0.165438
52.0529	5718	-0.163612
52.1032	5724	-0.164239
52.1546	5730	-0.163721
52.2036	5736	-0.16598
52.2534	5742	-0.165262
52.3045	5748	-0.165906
52.3519	5754	-0.165951
52.3996	5760	-0.167175
52.4508	5766	-0.166585
52.5022	5772	-0.166103
52.5533	5778	-0.168162
52.6038	5784	-0.165611
52.6551	5790	-0.166581
52.7118	5796	-0.164013
52.7653	5802	-0.165564
52.8129	5808	-0.165245
52.8627	5814	-0.165835
52.9143	5820	-0.165444
52.9658	5826	-0.166105
53.0143	5832	-0.165171
53.0648	5838	-0.164309
53.1163	5844	-0.163719
53.1665	5850	-0.163909
53.2161	5856	-0.164824
53.2642	5862	-0.164253
53.3153	5868	-0.163681
53.3693	5874	-0.16407
53.4201	5880	-0.163989
53.4675	5886	-0.16436
53.5161	5892	-0.163263
53.5686	5898	-0.162492
53.6181	5904	-0.161993
53.6671	5910	-0.163054
53.7168	5916	-0.163226
53.7679	5922	-0.163815
53.8186	5928	-0.164784
53.8686	5934	-0.16347
53.92	5940	-0.164113
53.9711	5946	-0.162727
54.0213	5952	-0.162338
54.0716	5958	-0.164721
54.1226	5964	-0.164657
54.174	5970	-0.163254
54.2243	5976	-0.165509
54.2742	5982	-0.164431
54.3259	5988	-0.164639
54.3772	5994	-0.16356
54.4269	6000	-0.162103
54.4773	6006	-0.162747
54.5293	6012	-0.163136
54.5796	6018	-0.164304
54.6301	6024	-0.16406
54.6811	6030	-0.164106
54.7318	6036	-0.165491
54.7819	6042	-0.165138
54.8329	6048	-0.166126
54.8843	6054	-0.165538
54.9351	6060	-0.166344
54.9863	6066	-0.166389
55.0369	6072	-0.164932
55.0874	6078	-0.16668
55.1378	6084	-0.167865
55.1895	6090	-0.165938
55.2428	6096	-0.166038
55.2925	6102	-0.165523
55.341	6108	-0.16593
55.3918	6114	-0.165795
55.4431	6120	-0.165696
55.4926	6126	-0.164728
55.5414	6132	-0.165716
55.5928	6138	-0.167662
55.6445	6144	-0.167146
55.6993	6150	-0.168332
55.7533	6156	-0.169011
55.8021	6162	-0.168803
55.8511	6168	-0.167402
55.9019	6174	-0.166942
55.9537	6180	-0.16867
56.0039	6186	-0.166671
56.053	6192	-0.164094
56.1042	6198	-0.163888
56.1553	6204	-0.163447
56.2045	6210	-0.163566
56.2539	6216	-0.164878
56.3053	6222	-0.167238
56.356	6228	-0.167718
56.4055	6234	-0.166155
56.4549	6240	-0.165731
56.5062	6246	-0.16556
56.5584	6252	-0.165733
56.6086	6258	-0.165111
56.6599	6264	-0.164379
56.7107	6270	-0.163721
56.7599	6276	-0.16234
56.8116	6282	-0.16338
56.8651	6288	-0.16292
56.9099	6294	-0.16107
56.9589	6300	-0.161966
57.0112	6306	-0.161452
57.0586	6312	-0.162474
57.1073	6318	-0.163388
57.1618	6324	-0.165096
57.2119	6330	-0.165613
57.2578	6336	-0.163871
57.3088	6342	-0.165706
57.371	6348	-0.166529
57.4236	6354	-0.16607
57.4686	6360	-0.165141
57.5161	6366	-0.164556
57.5652	6372	-0.163934
57.6143	6378	-0.16445
57.6646	6384	-0.164822
57.7155	6390	-0.163497
57.7672	6396	-0.165548
57.8189	6402	-0.163699
57.8685	6408	-0.164233
57.9177	6414	-0.163919
57.9689	6420	-0.164561
58.0242	6426	-0.16385
58.0754	6432	-0.165233
58.1248	6438	-0.165063
58.1767	6444	-0.164442
58.2291	6450	-0.16476
58.279	6456	-0.164789
58.3283	6462	-0.164078
58.379	6468	-0.16463
58.4304	6474	-0.165706
58.4802	6480	-0.163588
58.5303	6486	-0.164519
58.5803	6492	-0.163808
58.6323	6498	-0.163297
58.6792	6504	-0.164859
58.7302	6510	-0.164221
58.7837	6516	-0.164971
58.8349	6522	-0.164622
58.8848	6528	-0.164633
58.9352	6534	-0.162606
58.9865	6540	-0.164096
59.037	6546	-0.164216
59.0881	6552	-0.164534
59.1386	6558	-0.164527
59.1892	6564	-0.164033
59.2403	6570	-0.165343
59.2898	6576	-0.164417
59.3413	6582	-0.164879
59.3934	6588	-0.166369
59.4432	6594	-0.164415
59.4929	6600	-0.163994
59.5429	6606	-0.163248
59.5952	6612	-0.163873
59.6454	6618	-0.165488
59.6943	6624	-0.164202
59.745	6630	-0.163403
59.7952	6636	-0.163793
59.8455	6642	-0.16494
59.8972	6648	-0.164519
59.9487	6654	-0.163792
59.9977	6660	-0.164651
60.0479	6666	-0.165239
60.0989	6672	-0.163521
60.1501	6678	-0.161568
60.2004	6684	-0.163364
60.2498	6690	-0.162493
60.3009	6696	-0.162902
60.3516	6702	-0.164931
60.4017	6708	-0.166474
60.453	6714	-0.164883
60.504	6720	-0.164805
60.5536	6726	-0.16406
60.604	6732	-0.16454
60.6556	6738	-0.16394
60.7061	6744	-0.165213
60.7568	6750	-0.164828
60.8068	6756	-0.163328
60.8581	6762	-0.16361
60.9079	6768	-0.164144
60.9584	6774	-0.163706
61.009	6780	-0.164439
61.0595	6786	-0.163946
61.1104	6792	-0.159798
61.1604	6798	-0.158694
61.2111	6804	-0.156943
61.2625	6810	-0.159044
61.3123	6816	-0.158606
61.3626	6822	-0.159086
61.4139	6828	-0.160107
61.4644	6834	-0.162406
61.5151	6840	-0.16303
61.5657	6846	-0.161603
61.6163	6852	-0.163451
61.6656	6858	-0.163356
61.7161	6864	-0.164322
61.7675	6870	-0.164047
61.817	6876	-0.165013
61.8681	6882	-0.165746
61.92	6888	-0.165147
61.9699	6894	-0.167571
62.0205	6900	-0.166503
62.0705	6906	-0.167056
62.1225	6912	-0.167014
62.1722	6918	-0.166613
62.2222	6924	-0.16551
62.2736	6930	-0.166369
62.3252	6936	-0.167173
62.3746	6942	-0.166502
62.4306	6948	-0.165238
62.4907	6954	-0.165394
62.5406	6960	-0.164688
62.5879	6966	-0.164467
62.638	6972	-0.165631
62.6912	6978	-0.165446
62.7399	6984	-0.165567
62.789	6990	-0.164123
62.8398	6996	-0.165719
62.8911	7002	-0.164221
62.9397	7008	-0.163532
62.9897	7014	-0.164786
63.0407	7020	-0.165195
63.0907	7026	-0.165065
63.1403	7032	-0.166192
63.1911	7038	-0.164228
63.2414	7044	-0.164816
63.2907	7050	-0.165531
63.3412	7056	-0.164915
63.3924	7062	-0.164514
63.4422	7068	-0.16397
63.4923	7074	-0.164145
63.5426	7080	-0.163853
63.5934	7086	-0.163363
63.6437	7092	-0.163305
63.6926	7098	-0.165044
63.7444	7104	-0.164086
63.7953	7110	-0.162482
63.8448	7116	-0.163143
63.8954	7122	-0.163318
63.946	7128	-0.163457
63.9967	7134	-0.16313
64.0467	7140	-0.162424
64.097	7146	-0.162204
64.148	7152	-0.162667
64.1983	7158	-0.16198
64.2484	7164	-0.160754
64.2997	7170	-0.161828
64.3501	7176	-0.16123
64.3998	7182	-0.16146
64.4498	7188	-0.160162
64.5013	7194	-0.161272
64.5522	7200	-0.161663