File: rawdata/buffer_cooling2
H2O_H2O
Furnace temperature 	Time	HeatFlow
/°C	/s	/mW
64.9329	0.000000000	-0.160205
65.1305	2.1	-0.160725
65.4381	4.2	-0.161713
65.8795	6.3	-0.163996
66.3785	8.4	-0.168777
66.8671	10.5	-0.177496
67.288	12.6	-0.191247
67.596	14.7	-0.209114
67.7957	16.8	-0.230378
67.8956	18.9	-0.254302
67.9287	21	-0.279448
67.9178	23.1	-0.305062
67.8949	25.2	-0.330101
67.8746	27.3	-0.354063
67.8629	29.4	-0.377523
67.8617	31.5	-0.399979
67.8671	33.6	-0.42186
67.8733	35.7	-0.44315
67.8759	37.8	-0.464459
67.8746	39.9	-0.485374
67.8646	42	-0.505085
67.8483	44.1	-0.52424
67.8273	46.2	-0.542604
67.805	48.3	-0.559711
67.7814	50.4	-0.575452
67.7581	52.5	-0.590547
67.7348	54.6	-0.604583
67.7108	56.7	-0.616948
67.6851	58.8	-0.628881
67.66	60.9	-0.640564
67.6339	63	-0.650396
67.6069	65.1	-0.658574
67.5788	67.2	-0.666124
67.5488	69.3	-0.674392
67.5178	71.4	-0.680882
67.486	73.5	-0.685681
67.4542	75.6	-0.689887
67.4218	77.7	-0.693141
67.389	79.8	-0.695262
67.3563	81.9	-0.696197
67.3234	84	-0.695801
67.29	86.1	-0.69447
67.2559	88.2	-0.692941
67.2213	90.3	-0.69143
67.186	92.4	-0.689218
67.1503	94.5	-0.684685
67.1141	96.6	-0.679505
67.078	98.7	-0.674936
67.0418	100.8	-0.669054
67.0054	102.9	-0.66292
66.9686	105	-0.657415
66.9317	107.1	-0.650507
66.8947	109.2	-0.643509
66.857	111.3	-0.636223
66.8193	113.4	-0.629062
66.7814	115.5	-0.622261
66.7431	117.6	-0.615999
66.7047	119.7	-0.610313
66.666	121.8	-0.604896
66.6272	123.9	-0.596384
66.5882	126	-0.588826
66.5493	128.1	-0.581915
66.5101	130.2	-0.575867
66.4709	132.3	-0.56937
66.4314	134.4	-0.564293
66.3918	136.5	-0.558532
66.3521	138.6	-0.551584
66.3124	140.7	-0.543988
66.2724	142.8	-0.538748
66.2323	144.9	-0.533526
66.1922	147	-0.52645
66.1519	149.1	-0.519014
66.1116	151.2	-0.512658
66.0712	153.3	-0.507219
66.0307	155.4	-0.501672
65.9901	157.5	-0.494162
65.9494	159.6	-0.485518
65.9086	161.7	-0.478512
65.9025	163.8	-0.469742
65.9076	165.9	-0.461258
65.9011	168	-0.455115
65.8794	170.1	-0.447441
65.8426	172.2	-0.43802
65.7951	174.3	-0.429589
65.7429	176.4	-0.421356
65.6919	178.5	-0.412762
65.6455	180.6	-0.403754
65.605	182.7	-0.393934
65.57	184.8	-0.384204
65.5382	186.9	-0.376689
65.5059	189	-0.366418
65.472	191.1	-0.354327
65.4348	193.2	-0.345982
65.3944	195.3	-0.337059
65.352	197.4	-0.328029
65.3085	199.5	-0.316782
65.2644	201.6	-0.308488
65.2219	203.7	-0.298249
65.1802	205.8	-0.287577
65.1401	207.9	-0.277894
65.0998	210	-0.26659
65.0594	212.1	-0.25588
65.0189	214.2	-0.24407
64.9772	216.3	-0.233107
64.9349	218.4	-0.223854
64.893	220.5	-0.213483
64.8505	222.6	-0.205058
64.8072	224.7	-0.194218
64.7639	226.8	-0.182368
64.7209	228.9	-0.172535
64.6779	231	-0.161549
64.6358	233.1	-0.150796
64.5937	235.2	-0.140096
64.5513	237.3	-0.130892
64.5086	239.4	-0.122227
64.466	241.5	-0.115779
64.4228	243.6	-0.109727
64.3794	245.7	-0.101674
64.3354	247.8	-0.093963
64.2919	249.9	-0.0861611
64.2483	252	-0.0780524
64.2054	254.1	-0.0703216
64.1624	256.2	-0.0637621
64.1196	258.3	-0.0550388
64.0767	260.4	-0.0462068
64.0332	262.5	-0.0369775
63.9895	264.6	-0.0278738
63.946	266.7	-0.0219068
63.9018	268.8	-0.0139018
63.8581	270.9	-0.004309534
63.8143	273	0.001460604
63.7707	275.1	0.006491799
63.7269	277.2	0.0125873
63.6836	279.3	0.0192603
63.6398	281.4	0.0262044
63.5968	283.5	0.0341409
63.5533	285.6	0.0415007
63.5103	287.7	0.0460114
63.4664	289.8	0.0490072
63.4226	291.9	0.0555567
63.379	294	0.0621067
63.3353	296.1	0.067214
63.2919	298.2	0.0728268
63.2482	300.3	0.078909
63.2039	302.4	0.0839453
63.1603	304.5	0.0904254
63.117	306.6	0.0964548
63.0734	308.7	0.101005
63.03	310.8	0.104239
62.9862	312.9	0.108718
62.9425	315	0.115218
62.8991	317.1	0.120437
62.8556	319.2	0.124845
62.8116	321.3	0.127394
62.7678	323.4	0.132687
62.7239	325.5	0.139496
62.6804	327.6	0.143689
62.6375	329.7	0.146564
62.5934	331.8	0.148772
62.5499	333.9	0.152695
62.5067	336	0.157213
62.4631	338.1	0.161317
62.4191	340.2	0.166703
62.3754	342.3	0.171512
62.3318	344.4	0.174425
62.2883	346.5	0.176219
62.2449	348.6	0.18009
62.2013	350.7	0.183419
62.158	352.8	0.186532
62.1144	354.9	0.18997
62.0708	357	0.191928
62.0267	359.1	0.194482
61.9826	361.2	0.197776
61.9393	363.3	0.201252
61.8964	365.4	0.205793
61.8533	367.5	0.208745
61.8102	369.6	0.210614
61.767	371.7	0.213928
61.7239	373.8	0.218037
61.6803	375.9	0.219075
61.6368	378	0.219445
61.5925	380.1	0.221749
61.5485	382.2	0.224341
61.5049	384.3	0.228596
61.4619	386.4	0.232544
61.419	388.5	0.234378
61.3755	390.6	0.236936
61.3326	392.7	0.238843
61.2893	394.8	0.242376
61.246	396.9	0.242621
61.2022	399	0.242523
61.1588	401.1	0.244159
61.1153	403.2	0.246537
61.0717	405.3	0.247487
61.0283	407.4	0.24775
60.9851	409.5	0.250399
60.9421	411.6	0.253501
60.8991	413.7	0.256169
60.8561	415.8	0.257915
60.8132	417.9	0.257293
60.7696	420	0.257394
60.7256	422.1	0.260533
60.6825	424.2	0.2636
60.6393	426.3	0.261151
60.5955	428.4	0.263025
60.5524	430.5	0.266418
60.5094	432.6	0.266701
60.4664	434.7	0.268159
60.4234	436.8	0.270756
60.3806	438.9	0.272884
60.3377	441	0.275736
60.2944	443.1	0.277647
60.2511	445.2	0.275597
60.2071	447.3	0.273944
60.164	449.4	0.275729
60.1217	451.5	0.276555
60.0782	453.6	0.279298
60.0348	455.7	0.281446
59.9919	457.8	0.283122
59.9486	459.9	0.286048
59.9059	462	0.289933
59.863	464.1	0.29134
59.82	466.2	0.290918
59.777	468.3	0.291238
59.7336	470.4	0.291939
59.6905	472.5	0.293002
59.6472	474.6	0.295892
59.6041	476.7	0.295797
59.5609	478.8	0.296353
59.518	480.9	0.29519
59.4757	483	0.298389
59.4327	485.1	0.300865
59.3894	487.2	0.300516
59.3466	489.3	0.298665
59.3031	491.4	0.300869
59.26	493.5	0.303435
59.2166	495.6	0.304246
59.1733	497.7	0.304042
59.1307	499.8	0.302806
59.0881	501.9	0.303237
59.0457	504	0.304048
59.0032	506.1	0.304134
58.9605	508.2	0.303912
58.9173	510.3	0.30581
58.8746	512.4	0.30548
58.8309	514.5	0.306653
58.7883	516.6	0.307102
58.7455	518.7	0.307805
58.7024	520.8	0.308816
58.6591	522.9	0.308341
58.616	525	0.309008
58.573	527.1	0.308877
58.5302	529.2	0.30784
58.4877	531.3	0.309685
58.4451	533.4	0.309537
58.4025	535.5	0.310185
58.3594	537.6	0.311179
58.3164	539.7	0.309961
58.2735	541.8	0.30896
58.2303	543.9	0.307271
58.1874	546	0.309207
58.1447	548.1	0.310981
58.1019	550.2	0.31183
58.0595	552.3	0.313948
58.0166	554.4	0.314325
57.9734	556.5	0.311548
57.9307	558.6	0.311744
57.8878	560.7	0.309637
57.8447	562.8	0.310105
57.802	564.9	0.310084
57.7596	567	0.31068
57.7172	569.1	0.31249
57.6745	571.2	0.311925
57.6317	573.3	0.310598
57.5891	575.4	0.310795
57.5461	577.5	0.312388
57.5029	579.6	0.311387
57.46	581.7	0.31162
57.4174	583.8	0.311853
57.3748	585.9	0.312939
57.3324	588	0.313807
57.2898	590.1	0.315002
57.247	592.2	0.315399
57.2035	594.3	0.316577
57.1604	596.4	0.315848
57.1179	598.5	0.315047
57.0756	600.6	0.313647
57.0331	602.7	0.311248
56.9899	604.8	0.312535
56.9466	606.9	0.314094
56.904	609	0.314236
56.8617	611.1	0.313762
56.8192	613.2	0.31238
56.777	615.3	0.312196
56.7341	617.4	0.312176
56.6915	619.5	0.311828
56.6483	621.6	0.314895
56.605	623.7	0.316891
56.5622	625.8	0.316162
56.5195	627.9	0.317722
56.4768	630	0.31861
56.4339	632.1	0.319208
56.3917	634.2	0.318098
56.3492	636.3	0.315589
56.3068	638.4	0.314461
56.2641	640.5	0.314223
56.2212	642.6	0.313967
56.1785	644.7	0.31242
56.1359	646.8	0.311055
56.0926	648.9	0.31218
56.0502	651	0.315068
56.0073	653.1	0.317938
55.9653	655.2	0.317555
55.9227	657.3	0.317444
55.8805	659.4	0.31837
55.8375	661.5	0.318314
55.7948	663.6	0.318876
55.7517	665.7	0.318747
55.7093	667.8	0.31951
55.6666	669.9	0.318072
55.6242	672	0.314816
55.5817	674.1	0.314233
55.5393	676.2	0.313486
55.4964	678.3	0.31252
55.4536	680.4	0.313192
55.4106	682.5	0.311935
55.3673	684.6	0.312571
55.3252	686.7	0.314079
55.2828	688.8	0.314642
55.2399	690.9	0.312658
55.1972	693	0.312384
55.1545	695.1	0.311909
55.1123	697.2	0.31118
55.0703	699.3	0.31147
55.0279	701.4	0.312124
54.9849	703.5	0.312214
54.9427	705.6	0.312431
54.8998	707.7	0.311065
54.8565	709.8	0.30999
54.8131	711.9	0.309169
54.7706	714	0.309314
54.7284	716.1	0.311315
54.6862	718.2	0.312898
54.6441	720.3	0.312387
54.6013	722.4	0.309419
54.5591	724.5	0.308672
54.5166	726.6	0.308215
54.4734	728.7	0.308014
54.4305	730.8	0.306865
54.3877	732.9	0.307647
54.3449	735	0.308994
54.3022	737.1	0.310724
54.2598	739.2	0.310286
54.2175	741.3	0.307116
54.1756	743.4	0.307115
54.1336	745.5	0.303962
54.0906	747.6	0.303651
54.048	749.7	0.303413
54.0053	751.8	0.305563
53.9629	753.9	0.30835
53.9194	756	0.30875
53.8767	758.1	0.310244
53.8338	760.2	0.307765
53.7914	762.3	0.305905
53.7493	764.4	0.307617
53.707	766.5	0.307982
53.6645	768.6	0.308036
53.622	770.7	0.309093
53.5796	772.8	0.309202
53.5367	774.9	0.308837
53.4938	777	0.307104
53.451	779.1	0.305445
53.4085	781.2	0.30477
53.366	783.3	0.303565
53.3235	785.4	0.303218
53.2815	787.5	0.300664
53.2391	789.6	0.299094
53.1967	791.7	0.299988
53.1541	793.8	0.301574
53.1111	795.9	0.303598
53.0684	798	0.304328
53.0253	800.1	0.304601
52.9828	802.2	0.304838
52.94	804.3	0.303506
52.8977	806.4	0.30148
52.8554	808.5	0.299472
52.8128	810.6	0.298066
52.7706	812.7	0.298084
52.728	814.8	0.300731
52.6855	816.9	0.30084
52.643	819	0.299452
52.6005	821.1	0.296823
52.5579	823.2	0.296676
52.5156	825.3	0.297515
52.4732	827.4	0.298391
52.4304	829.5	0.297789
52.3878	831.6	0.297515
52.3455	833.7	0.295232
52.3032	835.8	0.295907
52.26	837.9	0.2943
52.2175	840	0.291979
52.175	842.1	0.290517
52.1322	844.2	0.292416
52.0896	846.3	0.294352
52.047	848.4	0.29543
52.0043	850.5	0.294736
51.9617	852.6	0.294863
51.9196	854.7	0.294644
51.877	856.8	0.293457
51.8346	858.9	0.292634
51.7918	861	0.292341
51.7496	863.1	0.29033
51.7071	865.2	0.290074
51.6645	867.3	0.291901
51.6222	869.4	0.293912
51.5793	871.5	0.293419
51.5369	873.6	0.293236
51.4949	875.7	0.295339
51.4523	877.8	0.295998
51.4097	879.9	0.295321
51.3672	882	0.294626
51.3242	884.1	0.293474
51.2812	886.2	0.292889
51.2386	888.3	0.293475
51.1962	890.4	0.291463
51.1537	892.5	0.290658
51.1115	894.6	0.293603
51.0688	896.7	0.295873
51.0263	898.8	0.294373
50.9836	900.9	0.291829
50.9411	903	0.29139
50.8986	905.1	0.287602
50.8559	907.2	0.286815
50.8134	909.3	0.287529
50.7708	911.4	0.288096
50.7282	913.5	0.288371
50.6857	915.6	0.288957
50.6435	917.7	0.28947
50.601	919.8	0.290587
50.5585	921.9	0.289929
50.5159	924	0.291101
50.4737	926.1	0.290571
50.4313	928.2	0.29123
50.3887	930.3	0.289124
50.3462	932.4	0.286468
50.3037	934.5	0.285058
50.261	936.6	0.287568
50.2178	938.7	0.291435
50.1755	940.8	0.289823
50.1323	942.9	0.288266
50.0898	945	0.287864
50.0471	947.1	0.288231
50.0057	949.2	0.287076
49.9633	951.3	0.286087
49.9208	953.4	0.285703
49.8778	955.5	0.28607
49.836	957.6	0.283284
49.7937	959.7	0.282532
49.7512	961.8	0.284568
49.7089	963.9	0.287081
49.666	966	0.2871
49.6234	968.1	0.286587
49.5808	970.2	0.284809
49.5381	972.3	0.282718
49.4953	974.4	0.282444
49.4525	976.5	0.281784
49.4097	978.6	0.282812
49.3674	980.7	0.283491
49.3252	982.8	0.281382
49.2832	984.9	0.282245
49.2406	987	0.281677
49.1986	989.1	0.282301
49.1557	991.2	0.283091
49.1121	993.3	0.28322
49.0693	995.4	0.281092
49.0266	997.5	0.278651
48.9841	999.6	0.276229
48.9421	1001.7	0.278561
48.9001	1003.8	0.280581
48.8583	1005.9	0.277534
48.8158	1008	0.276506
48.7732	1010.1	0.276635
48.7305	1012.2	0.277462
48.6876	1014.3	0.278198
48.6448	1016.4	0.279742
48.6014	1018.5	0.279448
48.5586	1020.6	0.278292
48.5159	1022.7	0.276731
48.4736	1024.8	0.278991
48.4316	1026.9	0.278753
48.39	1029	0.277578
48.3475	1031.1	0.275668
48.3046	1033.2	0.275577
48.2615	1035.3	0.275633
48.2183	1037.4	0.276443
48.1759	1039.5	0.275377
48.1335	1041.6	0.274294
48.0914	1043.7	0.273246
48.0488	1045.8	0.273063
48.006	1047.9	0.274093
47.9638	1050	0.274315
47.9207	1052.1	0.272992
47.8784	1054.2	0.270621
47.8364	1056.3	0.270768
47.7938	1058.4	0.271505
47.7509	1060.5	0.270825
47.7082	1062.6	0.272223
47.6658	1064.7	0.273825
47.6237	1066.8	0.272961
47.581	1068.9	0.270147
47.5388	1071	0.271749
47.4971	1073.1	0.274565
47.4543	1075.2	0.273554
47.4125	1077.3	0.272395
47.3698	1079.4	0.270722
47.3267	1081.5	0.270373
47.283	1083.6	0.270429
47.2401	1085.7	0.2687
47.1975	1087.8	0.269198
47.1553	1089.9	0.271813
47.1132	1092	0.272864
47.0714	1094.1	0.272073
47.029	1096.2	0.2713
46.986	1098.3	0.270933
46.9434	1100.4	0.270916
46.9009	1102.5	0.270291
46.8584	1104.6	0.27044
46.8157	1106.7	0.269814
46.7733	1108.8	0.268563
46.7312	1110.9	0.268638
46.6888	1113	0.267957
46.6464	1115.1	0.267829
46.6037	1117.2	0.266835
46.5617	1119.3	0.26726
46.5191	1121.4	0.268201
46.4766	1123.5	0.270322
46.434	1125.6	0.271485
46.3913	1127.7	0.270583
46.3488	1129.8	0.269423
46.3059	1131.9	0.268041
46.2639	1134	0.268024
46.2214	1136.1	0.267657
46.1792	1138.2	0.265906
46.137	1140.3	0.264874
46.0941	1142.4	0.265448
46.0517	1144.5	0.26674
46.0091	1146.6	0.265782
45.9662	1148.7	0.263643
45.9238	1150.8	0.26405
45.8808	1152.9	0.264106
45.8386	1155	0.265934
45.7968	1157.1	0.267689
45.7546	1159.2	0.268005
45.7117	1161.3	0.266844
45.6692	1163.4	0.264482
45.6259	1165.5	0.262582
45.583	1167.6	0.260368
45.5409	1169.7	0.261255
45.4983	1171.8	0.261885
45.4559	1173.9	0.261609
45.413	1176	0.262349
45.3698	1178.1	0.265656
45.3277	1180.2	0.26527
45.2854	1182.3	0.263941
45.2436	1184.4	0.261615
45.2017	1186.5	0.259954
45.1589	1188.6	0.2582
45.1161	1190.7	0.259642
45.0727	1192.8	0.260291
45.0303	1194.9	0.260329
44.9875	1197	0.259332
44.9452	1199.1	0.256488
44.9027	1201.2	0.256248
44.8604	1203.3	0.255861
44.8182	1205.4	0.255844
44.7761	1207.5	0.25664
44.7337	1209.6	0.257104
44.6915	1211.7	0.255829
44.6487	1213.8	0.256163
44.6057	1215.9	0.256516
44.5626	1218	0.255796
44.5202	1220.1	0.253966
44.478	1222.2	0.255391
44.436	1224.3	0.253283
44.3932	1226.4	0.253433
44.3507	1228.5	0.255691
44.3081	1230.6	0.257303
44.2654	1232.7	0.256768
44.2228	1234.8	0.255659
44.1801	1236.9	0.254716
44.138	1239	0.253496
44.0957	1241.1	0.252923
44.0529	1243.2	0.254054
44.0104	1245.3	0.255574
43.9678	1247.4	0.256019
43.9249	1249.5	0.255021
43.883	1251.6	0.253448
43.8402	1253.7	0.252283
43.7986	1255.8	0.254118
43.7564	1257.9	0.253675
43.7137	1260	0.253325
43.6712	1262.1	0.253104
43.6285	1264.2	0.253698
43.5858	1266.3	0.254774
43.5435	1268.4	0.255592
43.5008	1270.5	0.254444
43.4579	1272.6	0.252185
43.4153	1274.7	0.250574
43.3729	1276.8	0.249426
43.3306	1278.9	0.249947
43.2881	1281	0.251172
43.2454	1283.1	0.249616
43.203	1285.2	0.247856
43.1602	1287.3	0.248487
43.1175	1289.4	0.249323
43.0755	1291.5	0.249696
43.033	1293.6	0.250829
42.9903	1295.7	0.248364
42.9476	1297.8	0.246566
42.9053	1299.9	0.247235
42.863	1302	0.248739
42.82	1304.1	0.246588
42.7772	1306.2	0.246886
42.7342	1308.3	0.247853
42.6926	1310.4	0.246629
42.6504	1312.5	0.247819
42.6085	1314.6	0.249733
42.5659	1316.7	0.249549
42.5238	1318.8	0.249829
42.4812	1320.9	0.247974
42.4378	1323	0.246509
42.3954	1325.1	0.246065
42.3528	1327.2	0.245472
42.3102	1329.3	0.246885
42.268	1331.4	0.247091
42.2253	1333.5	0.247111
42.1826	1335.6	0.244308
42.14	1337.7	0.242971
42.0978	1339.8	0.2434
42.0559	1341.9	0.243384
42.0139	1344	0.243887
41.9716	1346.1	0.244576
41.9285	1348.2	0.242366
41.8854	1350.3	0.242739
41.8431	1352.4	0.242945
41.8007	1354.5	0.242184
41.7576	1356.6	0.240029
41.7153	1358.7	0.23925
41.6726	1360.8	0.242227
41.6301	1362.9	0.242303
41.5873	1365	0.242789
41.545	1367.1	0.242883
41.503	1369.2	0.241508
41.4602	1371.3	0.241379
41.4181	1373.4	0.24125
41.3754	1375.5	0.240805
41.3327	1377.6	0.240212
41.2904	1379.7	0.23852
41.2481	1381.8	0.237684
41.2059	1383.9	0.237388
41.1636	1386	0.236961
41.1209	1388.1	0.235045
41.0778	1390.2	0.2346
41.035	1392.3	0.234415
40.9924	1394.4	0.235273
40.9498	1396.5	0.235032
40.9071	1398.6	0.235294
40.8652	1400.7	0.236208
40.8234	1402.8	0.234924
40.7809	1404.9	0.234292
40.7377	1407	0.234368
40.6953	1409.1	0.234574
40.6527	1411.2	0.232824
40.6107	1413.3	0.231745
40.5675	1415.4	0.231187
40.5247	1417.5	0.232511
40.4823	1419.6	0.233352
40.4402	1421.7	0.233278
40.3977	1423.8	0.230818
40.3552	1425.9	0.229011
40.3134	1428	0.230597
40.2707	1430.1	0.229964
40.228	1432.2	0.229742
40.1856	1434.3	0.230321
40.1433	1436.4	0.231404
40.1006	1438.5	0.233346
40.058	1440.6	0.234037
40.0157	1442.7	0.231594
39.9729	1444.8	0.229916
39.9306	1446.9	0.230086
39.8885	1449	0.231431
39.8461	1451.1	0.231694
39.8032	1453.2	0.231566
39.7602	1455.3	0.230559
39.7179	1457.4	0.228619
39.6753	1459.5	0.228601
39.6329	1461.6	0.229629
39.5903	1463.7	0.230378
39.5478	1465.8	0.228885
39.5058	1467.9	0.228905
39.4634	1470	0.230214
39.4211	1472.1	0.230011
39.3787	1474.2	0.22805
39.3355	1476.3	0.227958
39.2928	1478.4	0.228128
39.2504	1480.5	0.227699
39.2084	1482.6	0.228542
39.1657	1484.7	0.228599
39.1233	1486.8	0.226208
39.0808	1488.9	0.22548
39.0384	1491	0.226267
38.9961	1493.1	0.22625
38.9534	1495.2	0.227429
38.9113	1497.3	0.227711
38.8685	1499.4	0.226983
38.8256	1501.5	0.227658
38.7825	1503.6	0.229305
38.7396	1505.7	0.229925
38.6975	1507.8	0.228374
38.6553	1509.9	0.22845
38.6132	1512	0.228789
38.5709	1514.1	0.227462
38.5287	1516.2	0.226303
38.4859	1518.3	0.227409
38.443	1520.4	0.228777
38.3996	1522.5	0.228124
38.3562	1524.6	0.227751
38.3129	1526.7	0.225131
38.2707	1528.8	0.223148
38.2285	1530.9	0.224049
38.1866	1533	0.224912
38.1445	1535.1	0.224782
38.1021	1537.2	0.224465
38.0595	1539.3	0.224167
38.017	1541.4	0.22415
37.9742	1543.5	0.22402
37.931	1545.6	0.223759
37.8883	1547.7	0.22406
37.8447	1549.8	0.222694
37.8014	1551.9	0.222095
37.7586	1554	0.222172
37.7156	1556.1	0.221723
37.6736	1558.2	0.221256
37.6313	1560.3	0.220714
37.5885	1562.4	0.220303
37.5462	1564.5	0.21796
37.5039	1566.6	0.216798
37.462	1568.7	0.217794
37.4193	1570.8	0.216594
37.3764	1572.9	0.215357
37.3336	1575	0.214588
37.2904	1577.1	0.21504
37.2482	1579.2	0.215379
37.2058	1581.3	0.2163
37.1641	1583.4	0.217202
37.122	1585.5	0.215233
37.0794	1587.6	0.215572
37.0365	1589.7	0.215761
36.9937	1591.8	0.216757
36.951	1593.9	0.216871
36.9084	1596	0.214299
36.8663	1598.1	0.21137
36.8245	1600.2	0.211164
36.7824	1602.3	0.21201
36.7403	1604.4	0.212369
36.6976	1606.5	0.213816
36.6546	1608.6	0.214419
36.6118	1610.7	0.214213
36.5687	1612.8	0.215136
36.5256	1614.9	0.215419
36.4826	1617	0.214631
36.44	1619.1	0.214538
36.3976	1621.2	0.213656
36.3558	1623.3	0.213469
36.3139	1625.4	0.213621
36.272	1627.5	0.212945
36.2292	1629.6	0.213981
36.1864	1631.7	0.213982
36.1433	1633.8	0.210992
36.1006	1635.9	0.209846
36.0584	1638	0.209922
36.0163	1640.1	0.211052
35.9742	1642.2	0.2119
35.9315	1644.3	0.210697
35.8885	1646.4	0.209098
35.8462	1648.5	0.208064
35.8041	1650.6	0.209891
35.762	1652.7	0.211399
35.7192	1654.8	0.211607
35.6762	1656.9	0.210007
35.6338	1659	0.210065
35.5922	1661.1	0.210895
35.5499	1663.2	0.208994
35.5077	1665.3	0.208505
35.4651	1667.4	0.207394
35.4227	1669.5	0.206302
35.3799	1671.6	0.207471
35.3376	1673.7	0.20915
35.2953	1675.8	0.206889
35.2522	1677.9	0.204779
35.2099	1680	0.205138
35.1675	1682.1	0.205874
35.1254	1684.2	0.20612
35.0826	1686.3	0.203538
35.0404	1688.4	0.203011
34.9976	1690.5	0.203446
34.9546	1692.6	0.202786
34.9121	1694.7	0.202183
34.8696	1696.8	0.20275
34.8273	1698.9	0.204468
34.7846	1701	0.204525
34.7424	1703.1	0.204809
34.7002	1705.2	0.204924
34.6582	1707.3	0.205416
34.6168	1709.4	0.204265
34.5742	1711.5	0.203436
34.5322	1713.6	0.202851
34.4896	1715.7	0.201474
34.447	1717.8	0.199756
34.4044	1719.9	0.199322
34.3619	1722	0.20106
34.3189	1724.1	0.201741
34.2762	1726.2	0.201232
34.2338	1728.3	0.199834
34.191	1730.4	0.200648
34.1486	1732.5	0.201707
34.1066	1734.6	0.199686
34.0646	1736.7	0.198893
34.0225	1738.8	0.19931
33.9795	1740.9	0.199764
33.9364	1743	0.199651
33.8936	1745.1	0.199936
33.8512	1747.2	0.200353
33.8082	1749.3	0.201337
33.7656	1751.4	0.200846
33.7233	1753.5	0.198766
33.6811	1755.6	0.19678
33.6389	1757.7	0.195286
33.5959	1759.8	0.195438
33.554	1761.9	0.197445
33.5121	1764	0.198827
33.4694	1766.1	0.199661
33.4268	1768.2	0.199605
33.3844	1770.3	0.199284
33.3422	1772.4	0.199834
33.2997	1774.5	0.200025
33.2572	1776.6	0.198113
33.2148	1778.7	0.197053
33.1718	1780.8	0.196656
33.1292	1782.9	0.195445
33.0866	1785	0.196241
33.0447	1787.1	0.19683
33.0024	1789.2	0.194917
32.9601	1791.3	0.196092
32.9176	1793.4	0.196529
32.8749	1795.5	0.195866
32.8325	1797.6	0.196322
32.7903	1799.7	0.195394
32.7477	1801.8	0.19566
32.7055	1803.9	0.195471
32.6625	1806	0.195718
32.6197	1808.1	0.193405
32.5771	1810.2	0.19352
32.5345	1812.3	0.193008
32.4919	1814.4	0.192326
32.4494	1816.5	0.191719
32.4074	1818.6	0.194206
32.3652	1820.7	0.19415
32.3233	1822.8	0.193069
32.2808	1824.9	0.190469
32.238	1827	0.191096
32.1956	1829.1	0.191818
32.153	1831.2	0.19123
32.1113	1833.3	0.190623
32.0691	1835.4	0.190262
32.0266	1837.5	0.18956
31.9843	1839.6	0.1892
31.9418	1841.7	0.190568
31.8992	1843.8	0.189011
31.8564	1845.9	0.188384
31.814	1848	0.189429
31.7714	1850.1	0.188403
31.7284	1852.2	0.186997
31.6855	1854.3	0.18656
31.643	1856.4	0.185401
31.601	1858.5	0.186694
31.5586	1860.6	0.186808
31.5161	1862.7	0.187436
31.474	1864.8	0.189833
31.4314	1866.9	0.189168
31.3885	1869	0.187742
31.3461	1871.1	0.187228
31.3038	1873.2	0.186011
31.2611	1875.3	0.184546
31.2187	1877.4	0.184813
31.1765	1879.5	0.185669
31.134	1881.6	0.186012
31.0919	1883.7	0.185232
31.0492	1885.8	0.184889
31.0068	1887.9	0.186299
30.965	1890	0.187213
30.9224	1892.1	0.185881
30.8792	1894.2	0.185177
30.8359	1896.3	0.184739
30.7934	1898.4	0.183977
30.7511	1900.5	0.184473
30.7087	1902.6	0.182739
30.6664	1904.7	0.180662
30.6244	1906.8	0.181538
30.582	1908.9	0.181938
30.5392	1911	0.183464
30.4968	1913.1	0.18335
30.4548	1915.2	0.184437
30.4124	1917.3	0.1852
30.3696	1919.4	0.182969
30.3274	1921.5	0.182969
30.2848	1923.6	0.184019
30.2426	1925.7	0.18463
30.2001	1927.8	0.184363
30.158	1929.9	0.182608
30.1158	1932	0.181959
30.0734	1934.1	0.182895
30.0304	1936.2	0.182647
29.9883	1938.3	0.182876
29.9459	1940.4	0.183278
29.9032	1942.5	0.182629
29.8601	1944.6	0.180796
29.8171	1946.7	0.180204
29.7749	1948.8	0.180644
29.7324	1950.9	0.181427
29.6899	1953	0.183529
29.6477	1955.1	0.184466
29.6051	1957.2	0.182173
29.5624	1959.3	0.180607
29.5195	1961.4	0.180186
29.4769	1963.5	0.180397
29.435	1965.6	0.180627
29.3934	1967.7	0.179518
29.3507	1969.8	0.179595
29.308	1971.9	0.178601
29.2656	1974	0.177778
29.2239	1976.1	0.179366
29.1812	1978.2	0.179653
29.1383	1980.3	0.177434
29.0953	1982.4	0.177377
29.0523	1984.5	0.177205
29.0095	1986.6	0.176899
28.9674	1988.7	0.178315
28.9255	1990.8	0.178487
28.8828	1992.9	0.178162
28.8406	1995	0.17596
28.7981	1997.1	0.174677
28.7554	1999.2	0.174926
28.7125	2001.3	0.174505
28.6705	2003.4	0.174983
28.6282	2005.5	0.176726
28.5857	2007.6	0.176937
28.544	2009.7	0.17437
28.5019	2011.8	0.174159
28.4595	2013.9	0.17665
28.4163	2016	0.176478
28.3737	2018.1	0.175768
28.3312	2020.2	0.176459
28.2887	2022.3	0.175271
28.2457	2024.4	0.174561
28.2041	2026.5	0.174715
28.1621	2028.6	0.174235
28.1198	2030.7	0.17341
28.077	2032.8	0.172893
28.0348	2034.9	0.171549
27.9925	2037	0.17176
27.9493	2039.1	0.171778
27.9068	2041.2	0.173467
27.8653	2043.3	0.173294
27.8228	2045.4	0.171701
27.7803	2047.5	0.172238
27.7378	2049.6	0.17172
27.6953	2051.7	0.170875
27.6525	2053.8	0.169645
27.6095	2055.9	0.169856
27.567	2058	0.171661
27.525	2060.1	0.171027
27.4828	2062.2	0.170873
27.4402	2064.3	0.170488
27.3979	2066.4	0.169354
27.3556	2068.5	0.170949
27.3135	2070.6	0.169796
27.2713	2072.7	0.168027
27.2284	2074.8	0.169161
27.1854	2076.9	0.169122
27.143	2079	0.169506
27.1005	2081.1	0.169429
27.0581	2083.2	0.167871
27.0155	2085.3	0.167409
26.973	2087.4	0.166581
26.9308	2089.5	0.166253
26.8882	2091.6	0.167446
26.846	2093.7	0.16835
26.8039	2095.8	0.167137
26.761	2097.9	0.166944
26.7188	2100	0.16575
26.6761	2102.1	0.164671
26.6338	2104.2	0.164593
26.5914	2106.3	0.164361
26.5491	2108.4	0.1649
26.5065	2110.5	0.165419
26.4638	2112.6	0.164763
26.4217	2114.7	0.163087
26.379	2116.8	0.162238
26.3367	2118.9	0.163528
26.2943	2121	0.164144
26.2519	2123.1	0.165319
26.2093	2125.2	0.165088
26.1664	2127.3	0.163718
26.1241	2129.4	0.164103
26.0811	2131.5	0.163293
26.0389	2133.6	0.16335
25.9968	2135.7	0.163734
25.9545	2137.8	0.162904
25.9125	2139.9	0.161784
25.8699	2142	0.162883
25.827	2144.1	0.164156
25.7841	2146.2	0.164214
25.7417	2148.3	0.162978
25.6995	2150.4	0.162688
25.657	2152.5	0.160602
25.6146	2154.6	0.161122
25.572	2156.7	0.162203
25.5296	2158.8	0.160676
25.4877	2160.9	0.161197
25.4449	2163	0.16166
25.4025	2165.1	0.162374
25.3601	2167.2	0.160943
25.3176	2169.3	0.15988
25.2753	2171.4	0.159028
25.2329	2173.5	0.159201
25.1903	2175.6	0.159084
25.1484	2177.7	0.159064
25.1062	2179.8	0.157845
25.0633	2181.9	0.156703
25.0202	2184	0.15734
24.9777	2186.1	0.156662
24.9355	2188.2	0.155809
24.8929	2190.3	0.15517
24.8501	2192.4	0.154839
24.8073	2194.5	0.154432
24.7649	2196.6	0.155572
24.7234	2198.7	0.155416
24.6819	2200.8	0.154582
24.6397	2202.9	0.154194
24.597	2205	0.155199
24.5544	2207.1	0.155488
24.5119	2209.2	0.155196
24.4695	2211.3	0.152909
24.4269	2213.4	0.151668
24.3843	2215.5	0.151976
24.3418	2217.6	0.152653
24.2992	2219.7	0.153853
24.257	2221.8	0.151875
24.2146	2223.9	0.150594
24.1723	2226	0.150011
24.1304	2228.1	0.151056
24.0878	2230.2	0.149367
24.0449	2232.3	0.149908
24.0026	2234.4	0.149828
23.9603	2236.5	0.149031
23.9177	2238.6	0.148157
23.8753	2240.7	0.147689
23.8328	2242.8	0.148793
23.7899	2244.9	0.150925
23.7474	2247	0.150458
23.7055	2249.1	0.149078
23.663	2251.2	0.14799
23.6205	2253.3	0.148182
23.5778	2255.4	0.148859
23.5347	2257.5	0.148644
23.4919	2259.6	0.146913
23.4501	2261.7	0.146814
23.4087	2263.8	0.146249
23.367	2265.9	0.147723
23.3241	2268	0.148615
23.2821	2270.1	0.148031
23.2396	2272.2	0.14902
23.1969	2274.3	0.14896
23.1544	2276.4	0.147325
23.1121	2278.5	0.146177
23.0698	2280.6	0.145358
23.0273	2282.7	0.145414
22.9846	2284.8	0.144653
22.9419	2286.9	0.143134
22.8991	2289	0.142995
22.8563	2291.1	0.145288
22.8143	2293.2	0.145695
22.7719	2295.3	0.145246
22.7303	2297.4	0.143842
22.6881	2299.5	0.143723
22.6461	2301.6	0.144947
22.6035	2303.7	0.143543
22.5607	2305.8	0.143152
22.518	2307.9	0.14348
22.4752	2310	0.143303
22.4328	2312.1	0.143651
22.3905	2314.2	0.143785
22.3488	2316.3	0.144932
22.3066	2318.4	0.144891
22.2636	2320.5	0.145494
22.221	2322.6	0.144088
22.1782	2324.7	0.142117
22.1362	2326.8	0.141374
22.094	2328.9	0.143653
22.0514	2331	0.143046
22.0091	2333.1	0.141659
21.9663	2335.2	0.140799
21.9241	2337.3	0.140992
21.8816	2339.4	0.141672
21.8395	2341.5	0.14085
21.7972	2343.6	0.13993
21.7547	2345.7	0.140747
21.7121	2347.8	0.140432
21.6699	2349.9	0.141523
21.6276	2352	0.141345
21.5849	2354.1	0.141616
21.5423	2356.2	0.140305
21.4996	2358.3	0.140049
21.4575	2360.4	0.140242
21.4151	2362.5	0.139516
21.3728	2364.6	0.13924
21.3306	2366.7	0.137538
21.2879	2368.8	0.137144
21.2458	2370.9	0.138549
21.2038	2373	0.138468
21.1616	2375.1	0.138153
21.1186	2377.2	0.138326
21.0757	2379.3	0.137834
21.0335	2381.4	0.137362
20.9916	2383.5	0.139394
20.9489	2385.6	0.139411
20.9057	2387.7	0.137197
20.8631	2389.8	0.136627
20.8215	2391.9	0.137446
20.78	2394	0.135722
20.7378	2396.1	0.136501
20.6952	2398.2	0.136812
20.6529	2400.3	0.136183
20.6103	2402.4	0.136121
20.5685	2404.5	0.137548
20.5257	2406.6	0.136703
20.4831	2408.7	0.136504
20.4405	2410.8	0.135365
20.3978	2412.9	0.135362
20.3552	2415	0.135124
20.3131	2417.1	0.134141
20.2712	2419.2	0.134589
20.229	2421.3	0.133841
20.1866	2423.4	0.133466
20.1442	2425.5	0.134247
20.1015	2427.6	0.134068
20.0586	2429.7	0.135143
20.0154	2431.8	0.135631
19.9728	2433.9	0.136452
19.9307	2436	0.135841
19.8891	2438.1	0.134465
19.8461	2440.2	0.133952
19.8035	2442.3	0.133439
19.7615	2444.4	0.134044
19.7191	2446.5	0.133216
19.6772	2448.6	0.132762
19.6349	2450.7	0.132052
19.5922	2452.8	0.132677
19.5493	2454.9	0.131849
19.5063	2457	0.13214
19.4643	2459.1	0.133002
19.4215	2461.2	0.132783
19.3795	2463.3	0.131836
19.3372	2465.4	0.13087
19.295	2467.5	0.131221
19.2531	2469.6	0.131807
19.2108	2471.7	0.131883
19.1685	2473.8	0.12956
19.1261	2475.9	0.128966
19.0837	2478	0.127645
19.0409	2480.1	0.127169
18.9979	2482.2	0.12811
18.9554	2484.3	0.129778
18.9136	2486.4	0.131251
18.8715	2488.5	0.131759
18.8294	2490.6	0.128331
18.7869	2492.7	0.127954
18.744	2494.8	0.128836
18.7016	2496.9	0.129325
18.659	2499	0.129932
18.6159	2501.1	0.129613
18.5739	2503.2	0.129728
18.5322	2505.3	0.129193
18.4906	2507.4	0.130569
18.448	2509.5	0.130112
18.4057	2511.6	0.128611
18.3637	2513.7	0.128529
18.3217	2515.8	0.127934
18.279	2517.9	0.127201
18.2362	2520	0.126113
18.1938	2522.1	0.126208
18.1514	2524.2	0.126224
18.1091	2526.3	0.127325
18.0661	2528.4	0.12886
18.0238	2530.5	0.128818
17.9814	2532.6	0.128202
17.9389	2534.7	0.127173
17.8967	2536.8	0.125433
17.854	2538.9	0.124422
17.8122	2541	0.125089
17.77	2543.1	0.124493
17.7271	2545.2	0.123837
17.6847	2547.3	0.123814
17.6428	2549.4	0.124876
17.6005	2551.5	0.125623
17.5583	2553.6	0.125185
17.5155	2555.7	0.124292
17.4738	2557.8	0.123142
17.4317	2559.9	0.123474
17.389	2562	0.12517
17.3462	2564.1	0.12402
17.3036	2566.2	0.122849
17.2613	2568.3	0.121975
17.2193	2570.4	0.121694
17.1776	2572.5	0.120186
17.136	2574.6	0.120222
17.0935	2576.7	0.122038
17.0511	2578.8	0.121974
17.0087	2580.9	0.120783
16.9664	2583	0.121036
16.9242	2585.1	0.120735
16.8816	2587.2	0.121265
16.8392	2589.3	0.121499
16.7971	2591.4	0.121574
16.7539	2593.5	0.119926
16.7113	2595.6	0.119465
16.6686	2597.7	0.119659
16.626	2599.8	0.120883
16.5836	2601.9	0.121097
16.5419	2604	0.120102
16.5003	2606.1	0.120871
16.458	2608.2	0.122195
16.4161	2610.3	0.122428
16.3739	2612.4	0.120759
16.3312	2614.5	0.119327
16.2893	2616.6	0.119124
16.2471	2618.7	0.118862
16.2046	2620.8	0.118143
16.1618	2622.9	0.117444
16.1195	2625	0.117836
16.0769	2627.1	0.118209
16.0347	2629.2	0.11874
15.9923	2631.3	0.118855
15.9497	2633.4	0.116488
15.9072	2635.5	0.115233
15.8654	2637.6	0.11632
15.8228	2639.7	0.116037
15.7806	2641.8	0.11641
15.7386	2643.9	0.11561
15.6965	2646	0.115327
15.6541	2648.1	0.114826
15.6119	2650.2	0.11502
15.5697	2652.3	0.113683
15.5277	2654.4	0.112962
15.4854	2656.5	0.113753
15.4434	2658.6	0.113728
15.4013	2660.7	0.113385
15.3594	2662.8	0.114931
15.3175	2664.9	0.115981
15.275	2667	0.115279
15.233	2669.1	0.114717
15.191	2671.2	0.113976
15.1486	2673.3	0.112737
15.1061	2675.4	0.11317
15.0641	2677.5	0.113444
15.022	2679.6	0.112324
14.9794	2681.7	0.112139
14.9366	2683.8	0.113309
14.8946	2685.9	0.113125
14.8526	2688	0.112143
14.8103	2690.1	0.112158
14.7677	2692.2	0.112073
14.7257	2694.3	0.112029
14.6833	2696.4	0.113219
14.6409	2698.5	0.114131
14.5989	2700.6	0.112611
14.5578	2702.7	0.110632
14.5154	2704.8	0.109909
14.4737	2706.9	0.110382
14.431	2709	0.110277
14.3883	2711.1	0.110191
14.3459	2713.2	0.109847
14.3036	2715.3	0.108584
14.2613	2717.4	0.10768
14.2185	2719.5	0.108653
14.1762	2721.6	0.108448
14.134	2723.7	0.108302
14.0913	2725.8	0.108117
14.0503	2727.9	0.107072
14.0085	2730	0.106607
13.9661	2732.1	0.106382
13.9242	2734.2	0.106296
13.882	2736.3	0.10605
13.8394	2738.4	0.106584
13.7971	2740.5	0.108077
13.7544	2742.6	0.108351
13.7119	2744.7	0.107346
13.67	2746.8	0.106901
13.6271	2748.9	0.106595
13.5854	2751	0.105889
13.5428	2753.1	0.106423
13.5014	2755.2	0.105397
13.4599	2757.3	0.10463
13.4182	2759.4	0.106645
13.3758	2761.5	0.10724
13.3334	2763.6	0.105753
13.291	2765.7	0.102824
13.2492	2767.8	0.101376
13.2073	2769.9	0.10175
13.1652	2772	0.102645
13.1233	2774.1	0.102198
13.0815	2776.2	0.10129
13.0393	2778.3	0.100963
12.9966	2780.4	0.103141
12.9549	2782.5	0.103275
12.9132	2784.6	0.102246
12.8714	2786.7	0.101458
12.829	2788.8	0.102173
12.7866	2790.9	0.103971
12.744	2793	0.102361
12.7015	2795.1	0.101291
12.6591	2797.2	0.101164
12.6171	2799.3	0.100817
12.5753	2801.4	0.101091
12.5337	2803.5	0.0997802
12.4918	2805.6	0.099733
12.4497	2807.7	0.099425
12.4075	2809.8	0.0992574
12.365	2811.9	0.0987085
12.3233	2814	0.0999667
12.2808	2816.1	0.101245
12.2386	2818.2	0.101279
12.1966	2820.3	0.100168
12.1545	2822.4	0.101065
12.1132	2824.5	0.0997325
12.0709	2826.6	0.0967711
12.0291	2828.7	0.0968041
11.9872	2830.8	0.0973396
11.9456	2832.9	0.097433
11.9033	2835	0.0979688
11.8611	2837.1	0.0971973
11.8187	2839.2	0.097673
11.7766	2841.3	0.0979678
11.7342	2843.4	0.0980212
11.6927	2845.5	0.0966256
11.6512	2847.6	0.0956925
11.6095	2849.7	0.0963091
11.5683	2851.8	0.0955973
11.5266	2853.9	0.0955897
11.4835	2856	0.0957634
11.4409	2858.1	0.0960178
11.399	2860.2	0.09593
11.3571	2862.3	0.0939889
11.3148	2864.4	0.0942833
11.2726	2866.5	0.094699
11.2312	2868.6	0.0940867
11.1896	2870.7	0.0939983
11.1475	2872.8	0.094273
11.1061	2874.9	0.0941041
11.0639	2877	0.0943182
11.0225	2879.1	0.094028
10.9803	2881.2	0.0942623
10.9384	2883.3	0.094638
10.8959	2885.4	0.0939648
10.8542	2887.5	0.0933518
10.8133	2889.6	0.093263
10.7715	2891.7	0.0922055
10.7298	2893.8	0.0922779
10.6879	2895.9	0.0940258
10.6457	2898	0.0952693
10.6045	2900.1	0.0947366
10.5625	2902.2	0.0935172
10.5204	2904.3	0.0931053
10.479	2906.4	0.0934203
10.4363	2908.5	0.0942
10.3942	2910.6	0.0926968
10.3522	2912.7	0.0928097
10.3108	2914.8	0.0943775
10.2696	2916.9	0.0942077
10.2285	2919	0.0950484
10.1869	2921.1	0.0961927
10.1453	2923.2	0.0960029
10.1042	2925.3	0.0954084
10.0625	2927.4	0.0958453
10.0211	2929.5	0.0961607
9.97931	2931.6	0.097346
9.93779	2933.7	0.0974998
9.89579	2935.8	0.0998999
9.85399	2937.9	0.0995685
9.81202	2940	0.0989331
9.76955	2942.1	0.100281
9.72818	2944.2	0.101266
9.68646	2946.3	0.101622
9.64556	2948.4	0.10121
9.60433	2950.5	0.100675
9.56283	2952.6	0.101619
9.52127	2954.7	0.101834
9.4797	2956.8	0.101623
9.43821	2958.9	0.100926
9.39702	2961	0.102032
9.3554	2963.1	0.103949
9.31396	2965.2	0.104124
9.27319	2967.3	0.105433
9.23257	2969.4	0.106601
9.19155	2971.5	0.106045
9.15063	2973.6	0.106788
9.10903	2975.7	0.107794
9.06823	2977.8	0.108293
9.0269	2979.9	0.109117
8.98508	2982	0.109211
8.94364	2984.1	0.108168
8.90209	2986.2	0.109378
8.86078	2988.3	0.109878
8.82022	2990.4	0.110621
8.7794	2992.5	0.10899
8.7384	2994.6	0.10888
8.69731	2996.7	0.109684
8.6567	2998.8	0.109656
8.64349	2999.5	0.109782