File: rawdata/buffer_cooling3
H2O_H2O
Furnace temperature 	Time	HeatFlow
/°C	/s	/mW
64.7953	0.000000000	-0.161948
64.9069	2.1	-0.162253
65.1919	4.2	-0.161911
65.6328	6.3	-0.163492
66.1617	8.4	-0.16831
66.6852	10.5	-0.176148
67.1337	12.6	-0.187976
67.4735	14.7	-0.205214
67.6892	16.8	-0.226118
67.8025	18.9	-0.249988
67.8448	21	-0.275296
67.8469	23.1	-0.301503
67.8293	25.2	-0.327171
67.8159	27.3	-0.352463
67.8081	29.4	-0.376516
67.8076	31.5	-0.400391
67.8163	33.6	-0.423855
67.8237	35.7	-0.447014
67.828	37.8	-0.469868
67.827	39.9	-0.492275
67.8193	42	-0.513442
67.8061	44.1	-0.535059
67.7875	46.2	-0.555616
67.7669	48.3	-0.575006
67.7458	50.4	-0.593229
67.7243	52.5	-0.611111
67.7031	54.6	-0.627951
67.68	56.7	-0.643426
67.6562	58.8	-0.657716
67.6322	60.9	-0.671143
67.6063	63	-0.683924
67.579	65.1	-0.695627
67.5509	67.2	-0.705855
67.5224	69.3	-0.714629
67.4929	71.4	-0.722935
67.4634	73.5	-0.730613
67.4327	75.6	-0.737841
67.4016	77.7	-0.743398
67.3691	79.8	-0.747012
67.3368	81.9	-0.748919
67.3039	84	-0.750377
67.2704	86.1	-0.750701
67.2367	88.2	-0.750936
67.2024	90.3	-0.751315
67.168	92.4	-0.748924
67.1333	94.5	-0.746066
67.0984	96.6	-0.742471
67.0631	98.7	-0.737616
67.0274	100.8	-0.732006
66.9912	102.9	-0.727366
66.9548	105	-0.721198
66.918	107.1	-0.713464
66.8807	109.2	-0.707546
66.8435	111.3	-0.701503
66.8062	113.4	-0.69411
66.7685	115.5	-0.686555
66.7308	117.6	-0.679198
66.693	119.7	-0.671121
66.6547	121.8	-0.663241
66.6162	123.9	-0.656404
66.5776	126	-0.649693
66.5387	128.1	-0.644205
66.4998	130.2	-0.639581
66.4608	132.3	-0.634165
66.4216	134.4	-0.62801
66.3823	136.5	-0.621442
66.3428	138.6	-0.615899
66.3032	140.7	-0.609474
66.2635	142.8	-0.604074
66.2236	144.9	-0.598674
66.1837	147	-0.593076
66.1436	149.1	-0.58845
66.1035	151.2	-0.581502
66.0632	153.3	-0.572141
66.0228	155.4	-0.562438
65.9824	157.5	-0.554822
65.9418	159.6	-0.547764
65.9012	161.7	-0.540652
65.8968	163.8	-0.531163
65.9055	165.9	-0.522556
65.9024	168	-0.513372
65.8828	170.1	-0.503251
65.8473	172.2	-0.492878
65.8	174.3	-0.484485
65.7471	176.4	-0.475407
65.6958	178.5	-0.465626
65.6494	180.6	-0.453774
65.6089	182.7	-0.4423
65.5737	184.8	-0.431401
65.5413	186.9	-0.420286
65.5091	189	-0.411619
65.4748	191.1	-0.399691
65.4384	193.2	-0.388916
65.3984	195.3	-0.380013
65.3561	197.4	-0.368336
65.3134	199.5	-0.357199
65.2702	201.6	-0.347502
65.2274	203.7	-0.33739
65.1862	205.8	-0.32607
65.1455	207.9	-0.314516
65.1054	210	-0.304294
65.0651	212.1	-0.293603
65.024	214.2	-0.282353
64.9821	216.3	-0.271354
64.9401	218.4	-0.261904
64.8979	220.5	-0.251697
64.8552	222.6	-0.243003
64.8124	224.7	-0.231876
64.7701	226.8	-0.225018
64.7277	228.9	-0.21807
64.6849	231	-0.205679
64.6425	233.1	-0.192693
64.5993	235.2	-0.181401
64.5562	237.3	-0.172594
64.5133	239.4	-0.162706
64.4706	241.5	-0.150419
64.4278	243.6	-0.140097
64.3843	245.7	-0.131847
64.3418	247.8	-0.124335
64.2985	249.9	-0.115218
64.2555	252	-0.106425
64.2122	254.1	-0.0961178
64.1687	256.2	-0.0875941
64.1249	258.3	-0.0760773
64.081	260.4	-0.0673902
64.0372	262.5	-0.0604694
63.9935	264.6	-0.0525204
63.9502	266.7	-0.0436694
63.9067	268.8	-0.0353586
63.8638	270.9	-0.0275883
63.8204	273	-0.0199977
63.7766	275.1	-0.0113787
63.7332	277.2	-0.004724762
63.689	279.3	0.002416566
63.645	281.4	0.009883018
63.6012	283.5	0.0180894
63.5578	285.6	0.0253766
63.5141	287.7	0.0317444
63.471	289.8	0.0389785
63.4273	291.9	0.0458163
63.3831	294	0.0513378
63.3394	296.1	0.0585553
63.2957	298.2	0.0652502
63.2519	300.3	0.0707549
63.208	302.4	0.0738605
63.1643	304.5	0.0797628
63.1206	306.6	0.0851424
63.0767	308.7	0.0904682
63.0327	310.8	0.0938999
62.9889	312.9	0.0991362
62.9457	315	0.104535
62.902	317.1	0.10896
62.8586	319.2	0.114902
62.8143	321.3	0.119562
62.7706	323.4	0.123032
62.7266	325.5	0.128379
62.6832	327.6	0.133203
62.6389	329.7	0.138298
62.5953	331.8	0.142617
62.5519	333.9	0.146485
62.5083	336	0.150029
62.4644	338.1	0.153591
62.4212	340.2	0.158345
62.3771	342.3	0.163388
62.3332	344.4	0.167312
62.2896	346.5	0.168528
62.246	348.6	0.174042
62.2022	350.7	0.178815
62.1591	352.8	0.183553
62.1158	354.9	0.187316
62.0724	357	0.189382
62.0289	359.1	0.189986
61.9845	361.2	0.193677
61.9408	363.3	0.197983
61.8972	365.4	0.203337
61.8533	367.5	0.206289
61.8095	369.6	0.208176
61.7661	371.7	0.209539
61.7229	373.8	0.208879
61.6796	375.9	0.21241
61.6364	378	0.216393
61.5926	380.1	0.218552
61.5491	382.2	0.221126
61.5052	384.3	0.223032
61.4619	386.4	0.227106
61.4179	388.5	0.229537
61.3749	390.6	0.232744
61.332	392.7	0.236332
61.2888	394.8	0.239016
61.2452	396.9	0.241538
61.2015	399	0.243933
61.1583	401.1	0.24651
61.1151	403.2	0.246664
61.0716	405.3	0.250488
61.0278	407.4	0.253788
60.9839	409.5	0.254666
60.9404	411.6	0.255942
60.8968	413.7	0.258231
60.8535	415.8	0.261441
60.8107	417.9	0.264002
60.7681	420	0.266436
60.7251	422.1	0.268544
60.6821	424.2	0.271448
60.6386	426.3	0.27419
60.5948	428.4	0.273714
60.5512	430.5	0.273255
60.5079	432.6	0.273501
60.4643	434.7	0.274019
60.4206	436.8	0.273036
60.3778	438.9	0.275508
60.3348	441	0.277383
60.2919	443.1	0.279348
60.2488	445.2	0.281477
60.2056	447.3	0.282701
60.1631	449.4	0.282026
60.1197	451.5	0.283738
60.0763	453.6	0.286048
60.0325	455.7	0.285409
59.9893	457.8	0.285512
59.9465	459.9	0.287841
59.9035	462	0.288993
59.8608	464.1	0.290508
59.8179	466.2	0.29204
59.7751	468.3	0.291185
59.7317	470.4	0.292428
59.6881	472.5	0.294813
59.6448	474.6	0.294282
59.6016	476.7	0.293662
59.5584	478.8	0.296173
59.516	480.9	0.298739
59.4729	483	0.29868
59.4298	485.1	0.300485
59.3866	487.2	0.298688
59.3441	489.3	0.30015
59.3011	491.4	0.303948
59.2582	493.5	0.303038
59.215	495.6	0.30211
59.1721	497.7	0.303464
59.1292	499.8	0.305724
59.086	501.9	0.306661
59.0426	504	0.30778
58.9993	506.1	0.309352
58.9567	508.2	0.308986
58.914	510.3	0.309362
58.8708	512.4	0.309883
58.828	514.5	0.308557
58.7858	516.6	0.310437
58.7426	518.7	0.312372
58.7001	520.8	0.311172
58.6566	522.9	0.312364
58.6134	525	0.313865
58.5704	527.1	0.311759
58.5275	529.2	0.311466
58.4845	531.3	0.312496
58.4417	533.4	0.310771
58.399	535.5	0.311782
58.3565	537.6	0.313808
58.3128	539.7	0.314765
58.2695	541.8	0.314164
58.2268	543.9	0.313508
58.1845	546	0.313976
58.1419	548.1	0.315496
58.0989	550.2	0.315167
58.056	552.3	0.315309
58.0135	554.4	0.318025
57.9707	556.5	0.318476
57.9276	558.6	0.31724
57.8847	560.7	0.319468
57.8419	562.8	0.322421
57.7983	564.9	0.321548
57.7556	567	0.322361
57.7133	569.1	0.321107
57.6711	571.2	0.32096
57.6286	573.3	0.321919
57.5859	575.4	0.323477
57.5429	577.5	0.324563
57.4993	579.6	0.324851
57.4562	581.7	0.322381
57.4136	583.8	0.321036
57.3707	585.9	0.321324
57.3284	588	0.321576
57.2855	590.1	0.320756
57.2427	592.2	0.319556
57.2006	594.3	0.317885
57.158	596.4	0.318536
57.1154	598.5	0.319859
57.0729	600.6	0.321635
57.0299	602.7	0.320725
56.9862	604.8	0.31869
56.9431	606.9	0.320304
56.8999	609	0.322517
56.8573	611.1	0.326037
56.8145	613.2	0.32727
56.772	615.3	0.322602
56.7295	617.4	0.320621
56.6871	619.5	0.324124
56.6448	621.6	0.326284
56.6028	623.7	0.327081
56.5603	625.8	0.327933
56.5176	627.9	0.328295
56.4748	630	0.330728
56.4316	632.1	0.331471
56.3886	634.2	0.330198
56.3457	636.3	0.32958
56.3027	638.4	0.328362
56.2595	640.5	0.329687
56.2171	642.6	0.330322
56.1748	644.7	0.328685
56.1324	646.8	0.33032
56.0899	648.9	0.333026
56.0474	651	0.33268
56.0047	653.1	0.333025
55.962	655.2	0.332587
55.9195	657.3	0.331151
55.8766	659.4	0.330205
55.8335	661.5	0.330241
55.7905	663.6	0.327877
55.7481	665.7	0.326985
55.7055	667.8	0.329221
55.6625	669.9	0.329511
55.6202	672	0.329092
55.5777	674.1	0.330419
55.5354	676.2	0.331273
55.4929	678.3	0.330181
55.4503	680.4	0.330526
55.4081	682.5	0.330671
55.3658	684.6	0.329434
55.3233	686.7	0.33027
55.28	688.8	0.328905
55.2368	690.9	0.327231
55.1931	693	0.326412
55.1503	695.1	0.326121
55.108	697.2	0.327012
55.0658	699.3	0.329977
55.024	701.4	0.330887
54.9818	703.5	0.330832
54.9387	705.6	0.331524
54.8961	707.7	0.330941
54.853	709.8	0.329958
54.8101	711.9	0.330104
54.768	714	0.329267
54.725	716.1	0.328811
54.6828	718.2	0.331105
54.6401	720.3	0.331196
54.5973	722.4	0.331452
54.5554	724.5	0.330323
54.5128	726.6	0.329285
54.4703	728.7	0.330269
54.4274	730.8	0.330415
54.3841	732.9	0.329468
54.3414	735	0.327483
54.2988	737.1	0.326627
54.2567	739.2	0.327465
54.2141	741.3	0.327283
54.1718	743.4	0.326809
54.1295	745.5	0.327356
54.0865	747.6	0.327739
54.0438	749.7	0.326191
54.0018	751.8	0.325809
53.9595	753.9	0.324952
53.9166	756	0.326684
53.8736	758.1	0.324334
53.8305	760.2	0.322657
53.788	762.3	0.323405
53.7459	764.4	0.323168
53.7036	766.5	0.325356
53.6607	768.6	0.323952
53.6183	770.7	0.323624
53.5755	772.8	0.32388
53.5331	774.9	0.323644
53.4908	777	0.322952
53.4484	779.1	0.323426
53.405	781.2	0.321731
53.3623	783.3	0.322643
53.3195	785.4	0.322242
53.277	787.5	0.323191
53.2346	789.6	0.325271
53.1926	791.7	0.324597
53.1505	793.8	0.322756
53.1077	795.9	0.323322
53.0651	798	0.325567
53.0218	800.1	0.324492
52.979	802.2	0.322358
52.9362	804.3	0.321464
52.8937	806.4	0.321483
52.8514	808.5	0.321703
52.8091	810.6	0.322544
52.767	812.7	0.322654
52.7249	814.8	0.322892
52.6827	816.9	0.323423
52.6403	819	0.322547
52.5975	821.1	0.322147
52.5544	823.2	0.321801
52.5114	825.3	0.321108
52.4682	827.4	0.320269
52.4249	829.5	0.319302
52.3827	831.6	0.320363
52.3409	833.7	0.319816
52.2986	835.8	0.319781
52.2565	837.9	0.319727
52.2144	840	0.318285
52.1716	842.1	0.318762
52.1288	844.2	0.318507
52.0866	846.3	0.316663
52.0444	848.4	0.317321
52.0014	850.5	0.316262
51.9586	852.6	0.3163
51.9162	854.7	0.318147
51.8734	856.8	0.319555
51.8304	858.9	0.319411
51.7883	861	0.317329
51.7461	863.1	0.316307
51.7038	865.2	0.316052
51.661	867.3	0.316328
51.6181	869.4	0.316676
51.5753	871.5	0.316111
51.5332	873.6	0.315984
51.4905	875.7	0.31807
51.4483	877.8	0.318876
51.406	879.9	0.318677
51.3633	882	0.317965
51.3206	884.1	0.316467
51.2776	886.2	0.317511
51.2354	888.3	0.319342
51.1922	890.4	0.318429
51.15	892.5	0.316437
51.1071	894.6	0.314664
51.0642	896.7	0.31494
51.0225	898.8	0.316753
50.9806	900.9	0.315657
50.9381	903	0.313517
50.8954	905.1	0.314013
50.8528	907.2	0.314362
50.8101	909.3	0.314511
50.7678	911.4	0.313744
50.725	913.5	0.312849
50.6824	915.6	0.314608
50.6398	917.7	0.315123
50.5968	919.8	0.312872
50.5547	921.9	0.313735
50.512	924	0.313627
50.4692	926.1	0.313592
50.4274	928.2	0.315444
50.3856	930.3	0.315099
50.3432	932.4	0.313818
50.3001	934.5	0.312739
50.2573	936.6	0.312228
50.2144	938.7	0.312633
50.1723	940.8	0.310693
50.1295	942.9	0.308203
50.0873	945	0.308352
50.0445	947.1	0.307768
50.0024	949.2	0.309511
49.9602	951.3	0.307167
49.9175	953.4	0.306563
49.8748	955.5	0.30794
49.8316	957.6	0.308766
49.7887	959.7	0.30743
49.7461	961.8	0.306607
49.7036	963.9	0.307031
49.6619	966	0.308702
49.6195	968.1	0.307512
49.5767	970.2	0.308652
49.5337	972.3	0.309167
49.4916	974.4	0.308253
49.4488	976.5	0.308879
49.4064	978.6	0.309027
49.3642	980.7	0.305544
49.3217	982.8	0.306353
49.2791	984.9	0.308154
49.2364	987	0.308046
49.1944	989.1	0.309608
49.1518	991.2	0.308675
49.1095	993.3	0.305759
49.0669	995.4	0.307249
49.0243	997.5	0.307783
48.9814	999.6	0.307639
48.9384	1001.7	0.308321
48.8951	1003.8	0.308305
48.8528	1005.9	0.307757
48.8106	1008	0.308604
48.7685	1010.1	0.309286
48.7267	1012.2	0.307397
48.6847	1014.3	0.306977
48.6424	1016.4	0.306576
48.5996	1018.5	0.306414
48.5565	1020.6	0.308161
48.5136	1022.7	0.311251
48.471	1024.8	0.311144
48.4279	1026.9	0.310357
48.3857	1029	0.310378
48.3432	1031.1	0.307863
48.301	1033.2	0.303621
48.259	1035.3	0.30186
48.2171	1037.4	0.304858
48.1742	1039.5	0.306111
48.1314	1041.6	0.307309
48.089	1043.7	0.309573
48.0459	1045.8	0.307131
48.003	1047.9	0.305333
47.9608	1050	0.30517
47.9184	1052.1	0.301863
47.8761	1054.2	0.299824
47.8333	1056.3	0.299992
47.7912	1058.4	0.30268
47.749	1060.5	0.305461
47.7063	1062.6	0.305133
47.6644	1064.7	0.304382
47.622	1066.8	0.304385
47.5792	1068.9	0.303156
47.5361	1071	0.300473
47.4928	1073.1	0.300972
47.4497	1075.2	0.301987
47.4072	1077.3	0.301199
47.3656	1079.4	0.301736
47.3235	1081.5	0.30415
47.2812	1083.6	0.306141
47.2385	1085.7	0.304654
47.1958	1087.8	0.303295
47.1528	1089.9	0.30247
47.1096	1092	0.30205
47.0673	1094.1	0.30198
47.0256	1096.2	0.301854
46.9833	1098.3	0.302779
46.9411	1100.4	0.301529
46.8992	1102.5	0.30133
46.8571	1104.6	0.300799
46.8139	1106.7	0.300986
46.7705	1108.8	0.300805
46.7274	1110.9	0.30079
46.6848	1113	0.30201
46.6424	1115.1	0.301313
46.6006	1117.2	0.30058
46.5587	1119.3	0.29981
46.5165	1121.4	0.297896
46.4739	1123.5	0.296277
46.4309	1125.6	0.296281
46.3882	1127.7	0.296173
46.3454	1129.8	0.297191
46.3026	1131.9	0.297581
46.2601	1134	0.299171
46.2173	1136.1	0.299635
46.1749	1138.2	0.298809
46.1329	1140.3	0.299422
46.0911	1142.4	0.298927
46.0486	1144.5	0.298654
46.0058	1146.6	0.297034
45.963	1148.7	0.294547
45.92	1150.8	0.292779
45.8774	1152.9	0.292746
45.8347	1155	0.295001
45.7926	1157.1	0.295392
45.7501	1159.2	0.295192
45.7071	1161.3	0.295455
45.6646	1163.4	0.295643
45.6219	1165.5	0.295001
45.5798	1167.6	0.29482
45.5373	1169.7	0.293956
45.4954	1171.8	0.293461
45.4528	1173.9	0.293907
45.4105	1176	0.293301
45.368	1178.1	0.295133
45.3255	1180.2	0.294288
45.2827	1182.3	0.294421
45.2397	1184.4	0.293686
45.197	1186.5	0.293561
45.1546	1188.6	0.293786
45.1128	1190.7	0.293513
45.0708	1192.8	0.293258
45.0282	1194.9	0.294223
44.9857	1197	0.294227
44.9428	1199.1	0.292124
44.9003	1201.2	0.291444
44.8581	1203.3	0.290634
44.8152	1205.4	0.290989
44.7729	1207.5	0.291769
44.7297	1209.6	0.29366
44.6872	1211.7	0.293978
44.6453	1213.8	0.290543
44.6032	1215.9	0.290491
44.5611	1218	0.28896
44.5187	1220.1	0.289056
44.4759	1222.2	0.290799
44.4332	1224.3	0.290026
44.3901	1226.4	0.287236
44.3473	1228.5	0.288258
44.3047	1230.6	0.291574
44.2621	1232.7	0.290227
44.2199	1234.8	0.286215
44.1775	1236.9	0.285645
44.1355	1239	0.28589
44.0934	1241.1	0.285875
44.051	1243.2	0.28512
44.0088	1245.3	0.287123
43.966	1247.4	0.289127
43.9228	1249.5	0.288428
43.8798	1251.6	0.287376
43.8366	1253.7	0.284991
43.7942	1255.8	0.286014
43.7516	1257.9	0.288463
43.7089	1260	0.290505
43.6669	1262.1	0.289175
43.6249	1264.2	0.286382
43.583	1266.3	0.286164
43.5409	1268.4	0.286298
43.4982	1270.5	0.285654
43.456	1272.6	0.284361
43.4138	1274.7	0.284587
43.3708	1276.8	0.286593
43.328	1278.9	0.284706
43.2851	1281	0.283394
43.2423	1283.1	0.283231
43.2003	1285.2	0.282605
43.1576	1287.3	0.281831
43.115	1289.4	0.282595
43.0728	1291.5	0.282321
43.0305	1293.6	0.28188
42.988	1295.7	0.280289
42.9451	1297.8	0.278549
42.9024	1299.9	0.278813
42.8596	1302	0.282157
42.8173	1304.1	0.282142
42.7744	1306.2	0.282814
42.7327	1308.3	0.285621
42.6904	1310.4	0.284513
42.6483	1312.5	0.283162
42.6054	1314.6	0.281533
42.563	1316.7	0.282094
42.5203	1318.8	0.282303
42.4778	1320.9	0.283051
42.4348	1323	0.281792
42.3925	1325.1	0.279438
42.3498	1327.2	0.279015
42.3076	1329.3	0.281044
42.2649	1331.4	0.280194
42.2226	1333.5	0.279994
42.1807	1335.6	0.28115
42.1388	1337.7	0.281693
42.0961	1339.8	0.281512
42.0532	1341.9	0.283023
42.0103	1344	0.281968
41.9673	1346.1	0.278683
41.9252	1348.2	0.278093
41.8825	1350.3	0.279436
41.8401	1352.4	0.280834
41.7978	1354.5	0.279537
41.7555	1356.6	0.27865
41.713	1358.7	0.278152
41.6705	1360.8	0.278361
41.6279	1362.9	0.279221
41.5856	1365	0.278556
41.5432	1367.1	0.277817
41.501	1369.2	0.279365
41.458	1371.3	0.280059
41.4154	1373.4	0.279003
41.3729	1375.5	0.276887
41.3306	1377.6	0.277357
41.2884	1379.7	0.278757
41.2458	1381.8	0.277701
41.2029	1383.9	0.27737
41.1606	1386	0.277375
41.1178	1388.1	0.276542
41.0752	1390.2	0.277385
41.0325	1392.3	0.280053
40.9902	1394.4	0.279294
40.9481	1396.5	0.278201
40.906	1398.6	0.277088
40.8632	1400.7	0.277558
40.8205	1402.8	0.275421
40.778	1404.9	0.27496
40.7358	1407	0.275766
40.6936	1409.1	0.274765
40.6506	1411.2	0.272347
40.608	1413.3	0.272296
40.5656	1415.4	0.273847
40.523	1417.5	0.272529
40.4809	1419.6	0.272627
40.4388	1421.7	0.273993
40.396	1423.8	0.271723
40.3533	1425.9	0.270478
40.3107	1428	0.271956
40.2676	1430.1	0.271775
40.2252	1432.2	0.271518
40.1829	1434.3	0.2735
40.1408	1436.4	0.276135
40.0986	1438.5	0.273958
40.0563	1440.6	0.272227
40.0141	1442.7	0.272717
39.9717	1444.8	0.273805
39.9287	1446.9	0.273624
39.8863	1449	0.273256
39.8432	1451.1	0.274791
39.8005	1453.2	0.276028
39.7584	1455.3	0.274185
39.7162	1457.4	0.273575
39.6733	1459.5	0.272329
39.6308	1461.6	0.271942
39.5883	1463.7	0.270845
39.5459	1465.8	0.270589
39.5042	1467.9	0.270388
39.4616	1470	0.271252
39.4181	1472.1	0.272247
39.3752	1474.2	0.271561
39.3328	1476.3	0.271585
39.2904	1478.4	0.270339
39.2482	1480.5	0.268251
39.2048	1482.6	0.267919
39.163	1484.7	0.268298
39.1208	1486.8	0.269238
39.0783	1488.9	0.268403
39.0356	1491	0.268856
38.9934	1493.1	0.269759
38.9515	1495.2	0.270848
38.9091	1497.3	0.273079
38.8667	1499.4	0.270167
38.8237	1501.5	0.268208
38.7809	1503.6	0.269204
38.7383	1505.7	0.267639
38.6959	1507.8	0.266858
38.6534	1509.9	0.26692
38.6107	1512	0.267393
38.5681	1514.1	0.267379
38.5258	1516.2	0.266337
38.4838	1518.3	0.267128
38.441	1520.4	0.267582
38.3984	1522.5	0.267138
38.3565	1524.6	0.266994
38.314	1526.7	0.266156
38.2718	1528.8	0.263896
38.2291	1530.9	0.262477
38.1869	1533	0.2634
38.1442	1535.1	0.265709
38.1012	1537.2	0.265808
38.0589	1539.3	0.264614
38.0167	1541.4	0.263177
37.9747	1543.5	0.264662
37.9319	1545.6	0.264612
37.8894	1547.7	0.264561
37.8468	1549.8	0.265353
37.8042	1551.9	0.26699
37.7616	1554	0.265833
37.7189	1556.1	0.263363
37.6765	1558.2	0.263031
37.6342	1560.3	0.263093
37.5924	1562.4	0.264017
37.5494	1564.5	0.264079
37.5068	1566.6	0.261927
37.4644	1568.7	0.260113
37.4217	1570.8	0.262557
37.3795	1572.9	0.265058
37.3374	1575	0.265157
37.2947	1577.1	0.265351
37.2521	1579.2	0.265713
37.2088	1581.3	0.266319
37.1658	1583.4	0.265086
37.1235	1585.5	0.264228
37.0816	1587.6	0.261455
37.0393	1589.7	0.260259
36.9965	1591.8	0.26064
36.9537	1593.9	0.263857
36.9117	1596	0.26405
36.8689	1598.1	0.261502
36.8269	1600.2	0.259253
36.7846	1602.3	0.258939
36.7425	1604.4	0.25885
36.6996	1606.5	0.259156
36.6568	1608.6	0.257357
36.6141	1610.7	0.258302
36.5718	1612.8	0.25874
36.5293	1614.9	0.258934
36.4871	1617	0.260819
36.4449	1619.1	0.262028
36.4021	1621.2	0.26038
36.3598	1623.3	0.260479
36.3172	1625.4	0.260485
36.2744	1627.5	0.260378
36.2319	1629.6	0.260139
36.1899	1631.7	0.261066
36.1482	1633.8	0.26143
36.1064	1635.9	0.259818
36.0639	1638	0.259296
36.0208	1640.1	0.259302
35.9782	1642.2	0.257764
35.9355	1644.3	0.259125
35.8927	1646.4	0.262086
35.8497	1648.5	0.261584
35.8067	1650.6	0.259914
35.7641	1652.7	0.258565
35.7223	1654.8	0.257026
35.6802	1656.9	0.258162
35.6384	1659	0.259787
35.5959	1661.1	0.259718
35.5534	1663.2	0.259611
35.5113	1665.3	0.259128
35.4687	1667.4	0.260396
35.4256	1669.5	0.260741
35.3825	1671.6	0.259089
35.3399	1673.7	0.256889
35.2977	1675.8	0.257913
35.255	1677.9	0.260558
35.2127	1680	0.262676
35.171	1682.1	0.260873
35.1287	1684.2	0.259502
35.0859	1686.3	0.259923
35.0432	1688.4	0.258043
35.0009	1690.5	0.25605
34.9584	1692.6	0.256566
34.9161	1694.7	0.257119
34.8735	1696.8	0.256502
34.8313	1698.9	0.257149
34.7885	1701	0.258137
34.7463	1703.1	0.25603
34.7037	1705.2	0.254544
34.6613	1707.3	0.255815
34.6186	1709.4	0.257709
34.5766	1711.5	0.2573
34.5334	1713.6	0.256116
34.491	1715.7	0.25701
34.4489	1717.8	0.257318
34.4065	1719.9	0.255889
34.3639	1722	0.255971
34.321	1724.1	0.257923
34.2783	1726.2	0.258213
34.2358	1728.3	0.258276
34.1938	1730.4	0.257961
34.1512	1732.5	0.256683
34.1086	1734.6	0.25633
34.0662	1736.7	0.256828
34.0234	1738.8	0.258101
33.981	1740.9	0.25754
33.939	1743	0.255164
33.8968	1745.1	0.255605
33.8544	1747.2	0.255914
33.8115	1749.3	0.256072
33.7689	1751.4	0.255757
33.7266	1753.5	0.257069
33.6841	1755.6	0.258021
33.6419	1757.7	0.257743
33.599	1759.8	0.257145
33.5563	1761.9	0.25719
33.514	1764	0.255834
33.4719	1766.1	0.255234
33.4294	1768.2	0.254521
33.3874	1770.3	0.255058
33.3454	1772.4	0.255443
33.3029	1774.5	0.253916
33.2598	1776.6	0.253431
33.2174	1778.7	0.251468
33.1747	1780.8	0.25172
33.1316	1782.9	0.252597
33.0888	1785	0.252528
33.0463	1787.1	0.250071
33.0044	1789.2	0.25129
32.9621	1791.3	0.252756
32.9202	1793.4	0.2528
32.8773	1795.5	0.251536
32.8345	1797.6	0.250007
32.792	1799.7	0.25062
32.7495	1801.8	0.251613
32.7074	1803.9	0.253117
32.665	1806	0.253636
32.6224	1808.1	0.254193
32.5799	1810.2	0.25272
32.538	1812.3	0.252879
32.4955	1814.4	0.253454
32.4525	1816.5	0.253177
32.4101	1818.6	0.252937
32.3682	1820.7	0.252735
32.3257	1822.8	0.251698
32.2826	1824.9	0.251761
32.2398	1827	0.25359
32.1975	1829.1	0.253711
32.1552	1831.2	0.253148
32.1128	1833.3	0.252813
32.0707	1835.4	0.251111
32.0284	1837.5	0.250149
31.9857	1839.6	0.252302
31.9433	1841.7	0.25381
31.9002	1843.8	0.253665
31.858	1845.9	0.251011
31.8157	1848	0.249916
31.7735	1850.1	0.250379
31.7305	1852.2	0.252705
31.688	1854.3	0.252959
31.6454	1856.4	0.251578
31.6036	1858.5	0.251452
31.5612	1860.6	0.250489
31.5186	1862.7	0.247834
31.4757	1864.8	0.247841
31.4335	1866.9	0.247391
31.3911	1869	0.249338
31.3489	1871.1	0.251609
31.3066	1873.2	0.252263
31.2638	1875.3	0.251147
31.2214	1877.4	0.251002
31.179	1879.5	0.251313
31.1365	1881.6	0.251758
31.094	1883.7	0.248377
31.0509	1885.8	0.249031
31.0091	1887.9	0.251285
30.9665	1890	0.251921
30.9241	1892.1	0.251261
30.8811	1894.2	0.251402
30.8387	1896.3	0.250057
30.7965	1898.4	0.248959
30.7542	1900.5	0.24969
30.712	1902.6	0.249449
30.6698	1904.7	0.249857
30.6272	1906.8	0.250417
30.5844	1908.9	0.250367
30.5418	1911	0.249268
30.4991	1913.1	0.24817
30.4566	1915.2	0.248616
30.4153	1917.3	0.248966
30.3729	1919.4	0.249621
30.3304	1921.5	0.248503
30.2874	1923.6	0.249101
30.2446	1925.7	0.250406
30.2026	1927.8	0.24923
30.1603	1929.9	0.247692
30.118	1932	0.247605
30.0755	1934.1	0.249138
30.0327	1936.2	0.248382
29.9896	1938.3	0.249077
29.9466	1940.4	0.249867
29.9045	1942.5	0.249741
29.8625	1944.6	0.250837
29.8204	1946.7	0.251398
29.7775	1948.8	0.250394
29.7348	1950.9	0.250229
29.6926	1953	0.250256
29.6507	1955.1	0.251047
29.6085	1957.2	0.249086
29.566	1959.3	0.248406
29.524	1961.4	0.250841
29.4811	1963.5	0.251002
29.4387	1965.6	0.251105
29.3963	1967.7	0.250176
29.3531	1969.8	0.247259
29.3101	1971.9	0.247763
29.2678	1974	0.24844
29.2258	1976.1	0.248773
29.1832	1978.2	0.248034
29.141	1980.3	0.247506
29.0983	1982.4	0.246749
29.0558	1984.5	0.247005
29.0134	1986.6	0.247051
28.971	1988.7	0.247862
28.9287	1990.8	0.247621
28.8861	1992.9	0.24939
28.8437	1995	0.249896
28.8015	1997.1	0.247721
28.7586	1999.2	0.24905
28.7162	2001.3	0.249594
28.6744	2003.4	0.248089
28.6316	2005.5	0.248442
28.5894	2007.6	0.249829
28.5476	2009.7	0.24909
28.5048	2011.8	0.246818
28.4623	2013.9	0.247286
28.4198	2016	0.250973
28.3768	2018.1	0.250099
28.334	2020.2	0.248747
28.2917	2022.3	0.249042
28.2493	2024.4	0.248302
28.2069	2026.5	0.247984
28.1642	2028.6	0.248529
28.1214	2030.7	0.248479
28.0792	2032.8	0.24868
28.0368	2034.9	0.249513
27.9947	2037	0.24862
27.9521	2039.1	0.247783
27.91	2041.2	0.248886
27.8675	2043.3	0.248721
27.825	2045.4	0.248422
27.783	2047.5	0.247509
27.7401	2049.6	0.247517
27.6971	2051.7	0.246833
27.6549	2053.8	0.244556
27.6132	2055.9	0.244506
27.5702	2058	0.246568
27.528	2060.1	0.247324
27.4858	2062.2	0.248427
27.4433	2064.3	0.249395
27.4002	2066.4	0.251363
27.3578	2068.5	0.252217
27.3152	2070.6	0.253552
27.2735	2072.7	0.253695
27.2307	2074.8	0.254473
27.1876	2076.9	0.254367
27.1451	2079	0.253453
27.1033	2081.1	0.251674
27.0609	2083.2	0.250971
27.019	2085.3	0.251653
26.9767	2087.4	0.252951
26.9343	2089.5	0.253133
26.8918	2091.6	0.252026
26.8486	2093.7	0.251901
26.8058	2095.8	0.251082
26.7641	2097.9	0.252189
26.7217	2100	0.252487
26.6789	2102.1	0.253131
26.637	2104.2	0.254238
26.5944	2106.3	0.2534
26.5518	2108.4	0.251002
26.509	2110.5	0.249374
26.4664	2112.6	0.250904
26.4246	2114.7	0.252108
26.3824	2116.8	0.252079
26.3399	2118.9	0.25045
26.2976	2121	0.248898
26.2554	2123.1	0.248869
26.2121	2125.2	0.249244
26.1695	2127.3	0.248771
26.1274	2129.4	0.249705
26.0848	2131.5	0.249926
26.0421	2133.6	0.249936
25.9997	2135.7	0.249772
25.9576	2137.8	0.248874
25.9157	2139.9	0.248285
25.8731	2142	0.249027
25.8303	2144.1	0.248111
25.7878	2146.2	0.245881
25.7458	2148.3	0.246527
25.7031	2150.4	0.247636
25.6605	2152.5	0.248726
25.6176	2154.6	0.249025
25.5747	2156.7	0.248262
25.5329	2158.8	0.247093
25.49	2160.9	0.247701
25.4482	2163	0.247961
25.4064	2165.1	0.248299
25.3635	2167.2	0.247805
25.3211	2169.3	0.247042
25.2784	2171.4	0.246432
25.2358	2173.5	0.246906
25.1927	2175.6	0.246258
25.1506	2177.7	0.246847
25.1086	2179.8	0.247185
25.0662	2181.9	0.245415
25.0237	2184	0.24438
24.9816	2186.1	0.245085
24.9393	2188.2	0.246022
24.8974	2190.3	0.246708
24.8552	2192.4	0.247356
24.8125	2194.5	0.2475
24.7692	2196.6	0.247007
24.7268	2198.7	0.245681
24.6847	2200.8	0.245535
24.6422	2202.9	0.244615
24.5994	2205	0.244141
24.5572	2207.1	0.245137
24.5146	2209.2	0.245011
24.4726	2211.3	0.243548
24.4304	2213.4	0.244138
24.3884	2215.5	0.244941
24.3466	2217.6	0.245628
24.3055	2219.7	0.244862
24.2648	2221.8	0.244969
24.2235	2223.9	0.245598
24.1828	2226	0.245821
24.1412	2228.1	0.246994
24.0995	2230.2	0.247507
24.057	2232.3	0.2474
24.0147	2234.4	0.247177
23.9726	2236.5	0.247497
23.9302	2238.6	0.246673
23.8877	2240.7	0.247187
23.8447	2242.8	0.245857
23.802	2244.9	0.244683
23.76	2247	0.244422
23.7178	2249.1	0.245072
23.6751	2251.2	0.244518
23.6327	2253.3	0.24344
23.5899	2255.4	0.244867
23.5476	2257.5	0.245401
23.5042	2259.6	0.245527
23.4617	2261.7	0.245712
23.4191	2263.8	0.243429
23.3772	2265.9	0.243594
23.3346	2268	0.24368
23.2922	2270.1	0.24402
23.2492	2272.2	0.24333
23.2074	2274.3	0.243106
23.1649	2276.4	0.24298
23.1224	2278.5	0.245088
23.0795	2280.6	0.246032
23.0371	2282.7	0.246217
22.9947	2284.8	0.246071
22.9518	2286.9	0.245711
22.9097	2289	0.243562
22.8673	2291.1	0.242423
22.8248	2293.2	0.242511
22.7817	2295.3	0.242754
22.7388	2297.4	0.243795
22.6964	2299.5	0.243902
22.6539	2301.6	0.244924
22.6115	2303.7	0.243629
22.5687	2305.8	0.243346
22.5255	2307.9	0.24544
22.4831	2310	0.245781
22.4411	2312.1	0.245518
22.3986	2314.2	0.245606
22.3556	2316.3	0.245928
22.3134	2318.4	0.246717
22.2712	2320.5	0.246591
22.2283	2322.6	0.246289
22.1857	2324.7	0.245305
22.1432	2326.8	0.244964
22.101	2328.9	0.245481
22.0585	2331	0.246778
22.0158	2333.1	0.246359
21.9733	2335.2	0.246408
21.9301	2337.3	0.246028
21.8878	2339.4	0.244868
21.8451	2341.5	0.245717
21.8029	2343.6	0.245708
21.7599	2345.7	0.246323
21.7172	2347.8	0.24526
21.6753	2349.9	0.244255
21.633	2352	0.243113
21.5908	2354.1	0.243395
21.5488	2356.2	0.242545
21.5063	2358.3	0.242359
21.4634	2360.4	0.243462
21.4208	2362.5	0.245132
21.3784	2364.6	0.245708
21.3357	2366.7	0.245855
21.2928	2368.8	0.246002
21.2502	2370.9	0.245622
21.2079	2373	0.244713
21.1654	2375.1	0.245369
21.1236	2377.2	0.248018
21.0815	2379.3	0.248947
21.0396	2381.4	0.248411
20.997	2383.5	0.24627
20.9538	2385.6	0.245772
20.9111	2387.7	0.2468
20.8687	2389.8	0.247847
20.8264	2391.9	0.248249
20.7843	2394	0.247086
20.7418	2396.1	0.247136
20.6992	2398.2	0.245287
20.657	2400.3	0.24612
20.6144	2402.4	0.245837
20.5727	2404.5	0.245476
20.5304	2406.6	0.244526
20.4867	2408.7	0.241874
20.4439	2410.8	0.24349
20.4017	2412.9	0.245224
20.3595	2415	0.245823
20.317	2417.1	0.246618
20.274	2419.2	0.245825
20.2318	2421.3	0.244503
20.1892	2423.4	0.242906
20.1465	2425.5	0.242857
20.1047	2427.6	0.242377
20.0632	2429.7	0.241603
20.0205	2431.8	0.24032
19.9781	2433.9	0.23878
19.9358	2436	0.238143
19.8933	2438.1	0.23676
19.8513	2440.2	0.235887
19.8086	2442.3	0.235327
19.766	2444.4	0.235906
19.7236	2446.5	0.236504
19.6811	2448.6	0.235611
19.6385	2450.7	0.235287
19.5963	2452.8	0.237025
19.554	2454.9	0.235385
19.5118	2457	0.233588
19.4693	2459.1	0.233008
19.4265	2461.2	0.232153
19.3837	2463.3	0.232044
19.3424	2465.4	0.232918
19.3001	2467.5	0.23277
19.2575	2469.6	0.232052
19.2147	2471.7	0.230607
19.1726	2473.8	0.229633
19.1302	2475.9	0.228581
19.0879	2478	0.22568
19.0454	2480.1	0.225157
19.0032	2482.2	0.225009
18.9611	2484.3	0.224053
18.9188	2486.4	0.223471
18.8764	2488.5	0.223007
18.8346	2490.6	0.223036
18.7922	2492.7	0.224481
18.7505	2494.8	0.222992
18.7082	2496.9	0.222863
18.6658	2499	0.222241
18.6235	2501.1	0.221324
18.581	2503.2	0.220052
18.5385	2505.3	0.220257
18.4963	2507.4	0.220246
18.4537	2509.5	0.219012
18.4115	2511.6	0.219435
18.3698	2513.7	0.218911
18.3279	2515.8	0.217499
18.287	2517.9	0.217448
18.2459	2520	0.215622
18.2041	2522.1	0.2149
18.1627	2524.2	0.215243
18.1212	2526.3	0.215763
18.0795	2528.4	0.215258
18.0371	2530.5	0.215345
17.9952	2532.6	0.215115
17.9529	2534.7	0.214373
17.911	2536.8	0.214084
17.8688	2538.9	0.2135
17.827	2541	0.212559
17.7848	2543.1	0.212429
17.7423	2545.2	0.211863
17.7001	2547.3	0.210804
17.6578	2549.4	0.211266
17.6155	2551.5	0.21076
17.574	2553.6	0.211064
17.5319	2555.7	0.211011
17.4897	2557.8	0.210583
17.4471	2559.9	0.21061
17.4051	2562	0.210103
17.3626	2564.1	0.209438
17.3197	2566.2	0.209584
17.2779	2568.3	0.209057
17.2352	2570.4	0.206928
17.1928	2572.5	0.207587
17.1507	2574.6	0.208761
17.1082	2576.7	0.207661
17.0652	2578.8	0.206203
17.0227	2580.9	0.205023
16.9808	2583	0.204614
16.9387	2585.1	0.204858
16.8972	2587.2	0.203816
16.8551	2589.3	0.202456
16.8123	2591.4	0.201294
16.7693	2593.5	0.200686
16.7271	2595.6	0.199048
16.6844	2597.7	0.199925
16.6417	2599.8	0.200961
16.5994	2601.9	0.201364
16.5572	2604	0.200419
16.5154	2606.1	0.199671
16.4733	2608.2	0.199103
16.4311	2610.3	0.19891
16.3894	2612.4	0.199213
16.3467	2614.5	0.19797
16.3041	2616.6	0.197996
16.2616	2618.7	0.197962
16.2195	2620.8	0.197928
16.1775	2622.9	0.196168
16.1352	2625	0.196293
16.0932	2627.1	0.196278
16.0505	2629.2	0.195173
16.0086	2631.3	0.19363
15.9658	2633.4	0.19167
15.9236	2635.5	0.192151
15.8811	2637.6	0.193129
15.8381	2639.7	0.192538
15.7955	2641.8	0.191471
15.7531	2643.9	0.19098
15.7107	2646	0.192117
15.6687	2648.1	0.191408
15.6265	2650.2	0.189426
15.584	2652.3	0.188019
15.5416	2654.4	0.187447
15.5003	2656.5	0.187571
15.4584	2658.6	0.187655
15.4157	2660.7	0.186308
15.3737	2662.8	0.184781
15.3313	2664.9	0.184506
15.289	2667	0.184351
15.2468	2669.1	0.183182
15.2046	2671.2	0.183842
15.1619	2673.3	0.183886
15.1191	2675.4	0.182437
15.077	2677.5	0.182122
15.035	2679.6	0.182465
14.9927	2681.7	0.182469
14.9502	2683.8	0.180979
14.9086	2685.9	0.179946
14.8661	2688	0.180747
14.8236	2690.1	0.181389
14.7819	2692.2	0.179998
14.7402	2694.3	0.177291
14.6981	2696.4	0.175182
14.6563	2698.5	0.175704
14.6137	2700.6	0.175767
14.5715	2702.7	0.176248
14.5292	2704.8	0.176291
14.487	2706.9	0.175916
14.4443	2709	0.174183
14.4019	2711.1	0.172511
14.3591	2713.2	0.172374
14.3169	2715.3	0.173374
14.2747	2717.4	0.17194
14.2332	2719.5	0.170665
14.1911	2721.6	0.170429
14.1492	2723.7	0.169373
14.107	2725.8	0.168237
14.0652	2727.9	0.169357
14.0226	2730	0.167942
13.9804	2732.1	0.167485
13.9384	2734.2	0.167847
13.8967	2736.3	0.168469
13.854	2738.4	0.166513
13.8115	2740.5	0.164935
13.7693	2742.6	0.163718
13.727	2744.7	0.16252
13.6846	2746.8	0.163342
13.642	2748.9	0.163484
13.6	2751	0.161406
13.5581	2753.1	0.159767
13.5155	2755.2	0.158888
13.4731	2757.3	0.158169
13.4316	2759.4	0.157689
13.3897	2761.5	0.157109
13.3481	2763.6	0.157691
13.3059	2765.7	0.158151
13.2638	2767.8	0.158072
13.2215	2769.9	0.156791
13.1798	2772	0.157392
13.1377	2774.1	0.157373
13.0958	2776.2	0.157033
13.0535	2778.3	0.156453
13.011	2780.4	0.156834
12.9688	2782.5	0.157336
12.927	2784.6	0.156775
12.8855	2786.7	0.156294
12.8435	2788.8	0.156676
12.8013	2790.9	0.157318
12.7589	2793	0.15806
12.7171	2795.1	0.157841
12.6749	2797.2	0.156558
12.6333	2799.3	0.155515
12.5919	2801.4	0.153851
12.5501	2803.5	0.152566
12.5069	2805.6	0.153509
12.4648	2807.7	0.15369
12.4223	2809.8	0.152706
12.3795	2811.9	0.15118
12.3378	2814	0.151481
12.2958	2816.1	0.151682
12.2534	2818.2	0.152586
12.2113	2820.3	0.152284
12.169	2822.4	0.152324
12.1271	2824.5	0.152284
12.0856	2826.6	0.152063
12.0437	2828.7	0.152263
12.0016	2830.8	0.152906
11.9599	2832.9	0.151338
11.9188	2835	0.149589
11.8768	2837.1	0.149005
11.8349	2839.2	0.148783
11.7932	2841.3	0.14824
11.7511	2843.4	0.147655
11.7096	2845.5	0.147514
11.6684	2847.6	0.146949
11.6262	2849.7	0.147834
11.5842	2851.8	0.149684
11.5421	2853.9	0.149703
11.5002	2856	0.148213
11.4576	2858.1	0.146481
11.4156	2860.2	0.145755
11.3732	2862.3	0.146378
11.3316	2864.4	0.146276
11.2904	2866.5	0.146295
11.2486	2868.6	0.144984
11.2069	2870.7	0.14472
11.1651	2872.8	0.145303
11.1227	2874.9	0.145382
11.0818	2877	0.145198
11.0399	2879.1	0.14556
10.9979	2881.2	0.144267
10.9561	2883.3	0.143398
10.914	2885.4	0.143658
10.8729	2887.5	0.143838
10.8314	2889.6	0.144542
10.7895	2891.7	0.14573
10.7472	2893.8	0.146313
10.7047	2895.9	0.146351
10.6626	2898	0.1453
10.6207	2900.1	0.144732
10.5796	2902.2	0.146304
10.5386	2904.3	0.147654
10.4969	2906.4	0.148338
10.4541	2908.5	0.147952
10.4111	2910.6	0.147849
10.3691	2912.7	0.146978
10.3272	2914.8	0.146612
10.286	2916.9	0.147418
10.2449	2919	0.149497
10.2032	2921.1	0.149212
10.1622	2923.2	0.149655
10.1212	2925.3	0.148723
10.08	2927.4	0.149853
10.0393	2929.5	0.149041
9.99821	2931.6	0.149201
9.95787	2933.7	0.149016
9.91651	2935.8	0.149459
9.87529	2937.9	0.150144
9.83397	2940	0.150567
9.79307	2942.1	0.150362
9.75221	2944.2	0.150177
9.71146	2946.3	0.149203
9.67096	2948.4	0.150293
9.63032	2950.5	0.150816
9.58998	2952.6	0.150307
9.54894	2954.7	0.150689
9.50722	2956.8	0.151678
9.46679	2958.9	0.151777
9.42547	2961	0.151956
9.38406	2963.1	0.151791
9.34354	2965.2	0.15197
9.3028	2967.3	0.153264
9.2628	2969.4	0.154051
9.22228	2971.5	0.153906
9.18174	2973.6	0.154694
9.14229	2975.7	0.154975
9.10158	2977.8	0.153938
9.06038	2979.9	0.153976
9.02019	2982	0.153587
8.97962	2984.1	0.153462
8.93923	2986.2	0.153925
8.89896	2988.3	0.153658
8.85841	2990.4	0.153634
8.81811	2992.5	0.153245
8.77761	2994.6	0.153059
8.73701	2996.7	0.154172
8.69686	2998.8	0.154574
8.68342	2999.5	0.154478