File: rawdata/buffer_heating1
H2O_H2O
Furnace temperature 	Time	HeatFlow
/°C	/s	/mW
7.77207	0.000000000	0.0118586
7.45285	6	0.0123097
6.98151	12	0.0202282
6.53321	18	0.036674
6.18055	24	0.0657978
5.90876	30	0.100779
5.69559	36	0.139842
5.52739	42	0.175944
5.39536	48	0.209389
5.29248	54	0.236761
5.21064	60	0.258508
5.14633	66	0.273533
5.09891	72	0.282086
5.0643	78	0.285512
5.04045	84	0.28495
5.02616	90	0.28006
5.02034	96	0.271574
5.02177	102	0.260898
5.02892	108	0.248255
5.04132	114	0.234134
5.0584	120	0.219593
5.07922	126	0.204062
5.1035	132	0.189429
5.13116	138	0.174175
5.16165	144	0.159008
5.19449	150	0.144029
5.22941	156	0.130517
5.26626	162	0.116928
5.18238	168	0.10371
5.12938	174	0.0916732
5.1083	180	0.0801879
5.1077	186	0.0696186
5.12068	192	0.0592359
5.14401	198	0.0497687
5.17525	204	0.0407706
5.21225	210	0.0324845
5.25344	216	0.024991
5.29921	222	0.0183905
5.34888	228	0.0121973
5.40022	234	0.005197542
5.4538	240	-0.000748142
5.50937	246	-0.006509617
5.56625	252	-0.0118041
5.62374	258	-0.0158638
5.68158	264	-0.020912
5.74055	270	-0.0249686
5.80002	276	-0.028236
5.8596	282	-0.0326734
5.92029	288	-0.0354335
5.98179	294	-0.0390405
6.04238	300	-0.0407287
6.10239	306	-0.0424568
6.16247	312	-0.045758
6.22349	318	-0.0472829
6.284	324	-0.0494122
6.34422	330	-0.0510771
6.40444	336	-0.0529028
6.4645	342	-0.0544255
6.5249	348	-0.0562499
6.58469	354	-0.056905
6.64356	360	-0.0583659
6.70328	366	-0.0598867
6.76344	372	-0.0602388
6.8227	378	-0.061336
6.88216	384	-0.0625133
6.93994	390	-0.0634485
6.99704	396	-0.0643232
7.05455	402	-0.0648153
7.11209	408	-0.0656896
7.16863	414	-0.0669657
7.22519	420	-0.0680604
7.28196	426	-0.0686523
7.3377	432	-0.0698471
7.39366	438	-0.0705186
7.4497	444	-0.0713509
7.50474	450	-0.071962
7.5597	456	-0.0730952
7.6148	462	-0.0737257
7.66999	468	-0.0736331
7.72422	474	-0.0738618
7.77837	480	-0.0750742
7.83329	486	-0.0750416
7.88757	492	-0.0755111
7.94106	498	-0.0752175
7.99481	504	-0.0757266
8.04885	510	-0.0758947
8.10217	516	-0.0766445
8.1551	522	-0.0772132
8.20847	528	-0.07702
8.26177	534	-0.0771879
8.31414	540	-0.0772153
8.36684	546	-0.076982
8.4205	552	-0.0772499
8.47306	558	-0.0771171
8.52527	564	-0.0770044
8.57736	570	-0.0771719
8.63013	576	-0.0774596
8.68295	582	-0.0774671
8.73461	588	-0.078095
8.78657	594	-0.077762
8.83948	600	-0.0773092
8.89119	606	-0.0776168
8.94264	612	-0.0780642
8.99449	618	-0.0780916
9.04661	624	-0.0774389
9.09781	630	-0.0779464
9.14955	636	-0.0779336
9.20182	642	-0.0777211
9.25349	648	-0.0778685
9.30406	654	-0.077636
9.35585	660	-0.078063
9.40794	666	-0.0784101
9.459	672	-0.0782777
9.51003	678	-0.0780853
9.56221	684	-0.0785319
9.61388	690	-0.0776609
9.66455	696	-0.077828
9.71564	702	-0.0776358
9.76744	708	-0.0783219
9.81858	714	-0.0783094
9.86968	720	-0.0776783
9.92057	726	-0.0781846
9.97219	732	-0.0779726
10.0236	738	-0.0782192
10.0744	744	-0.0774293
10.1256	750	-0.0777558
10.1769	756	-0.0781222
10.2273	762	-0.077731
10.2783	768	-0.0780574
10.3298	774	-0.0786426
10.3807	780	-0.0787098
10.4316	786	-0.0794539
10.4823	792	-0.0798992
10.5339	798	-0.0784335
10.5849	804	-0.0782219
10.6354	810	-0.0792841
10.6867	816	-0.0784757
10.7379	822	-0.0794381
10.7883	828	-0.0786099
10.8391	834	-0.079015
10.8902	840	-0.0795595
10.9414	846	-0.0795073
10.9916	852	-0.0790572
11.043	858	-0.0796013
11.0941	864	-0.0795691
11.1447	870	-0.0797551
11.1953	876	-0.0796034
11.2464	882	-0.0789951
11.297	888	-0.0797176
11.3478	894	-0.0787319
11.3992	900	-0.0791961
11.4499	906	-0.0795014
11.5007	912	-0.0801241
11.5509	918	-0.0795557
11.6022	924	-0.0790274
11.6529	930	-0.0800469
11.7033	936	-0.080431
11.7543	942	-0.0801406
11.8053	948	-0.0797912
11.8559	954	-0.0809287
11.9062	960	-0.080916
11.9575	966	-0.0806258
12.0086	972	-0.0812278
12.059	978	-0.0806802
12.1098	984	-0.0810241
12.161	990	-0.0800212
12.2121	996	-0.081514
12.262	1002	-0.0812637
12.3125	1008	-0.0808353
12.3641	1014	-0.0811396
12.4145	1020	-0.0813844
12.4647	1026	-0.0813123
12.516	1032	-0.081834
12.567	1038	-0.0804169
12.6175	1044	-0.081334
12.6681	1050	-0.0808072
12.7193	1056	-0.0824756
12.77	1062	-0.0817314
12.8202	1068	-0.0817978
12.8709	1074	-0.0817259
12.9226	1080	-0.0827806
12.973	1086	-0.082847
13.0227	1092	-0.082518
13.074	1098	-0.0836115
13.1254	1104	-0.0839543
13.1755	1110	-0.0843759
13.2258	1116	-0.0839679
13.2769	1122	-0.0827906
13.3282	1128	-0.0835477
13.3779	1134	-0.0837322
13.4287	1140	-0.0834431
13.4802	1146	-0.0842986
13.5306	1152	-0.0832995
13.5808	1158	-0.0832275
13.6317	1164	-0.0838261
13.6827	1170	-0.0848585
13.733	1176	-0.0836628
13.7836	1182	-0.084458
13.8348	1188	-0.0840315
13.8855	1194	-0.0839597
13.9357	1200	-0.0842817
13.9867	1206	-0.0841901
14.0378	1212	-0.085123
14.0879	1218	-0.0853268
14.1386	1224	-0.0852939
14.1898	1230	-0.0843952
14.2405	1236	-0.0848156
14.2907	1242	-0.0854523
14.3413	1248	-0.0849867
14.3927	1254	-0.0856822
14.4431	1260	-0.0851777
14.4933	1266	-0.0859712
14.5439	1272	-0.0860173
14.5954	1278	-0.08626
14.6454	1284	-0.0858343
14.696	1290	-0.0853691
14.7469	1296	-0.0851796
14.7979	1302	-0.0867193
14.8478	1308	-0.0866669
14.8985	1314	-0.0858091
14.9499	1320	-0.0856982
15.0007	1326	-0.0856659
15.0507	1332	-0.0869097
15.1014	1338	-0.086504
15.1528	1344	-0.0869231
15.2029	1350	-0.0867532
15.2533	1356	-0.0871914
15.3046	1362	-0.087512
15.3554	1368	-0.0874992
15.405	1374	-0.0866819
15.4555	1380	-0.0873162
15.5073	1386	-0.0872445
15.5581	1392	-0.0871925
15.608	1398	-0.088042
15.6587	1404	-0.0875193
15.71	1410	-0.0875849
15.7604	1416	-0.0883557
15.8104	1422	-0.0879899
15.8615	1428	-0.0875851
15.9121	1434	-0.0874548
15.9627	1440	-0.0883818
16.013	1446	-0.0889563
16.0643	1452	-0.0888062
16.1145	1458	-0.0890085
16.1647	1464	-0.0883103
16.216	1470	-0.0883169
16.267	1476	-0.0897911
16.3172	1482	-0.0890345
16.3674	1488	-0.0891975
16.4185	1494	-0.0899471
16.4694	1500	-0.0898362
16.5197	1506	-0.090175
16.57	1512	-0.0904355
16.6217	1518	-0.0904811
16.6724	1524	-0.0909369
16.7221	1530	-0.0904937
16.7731	1536	-0.0906368
16.8239	1542	-0.0909167
16.8744	1548	-0.0913136
16.9245	1554	-0.0906949
16.9758	1560	-0.0912871
17.0266	1566	-0.0914301
17.0767	1572	-0.0912801
17.1273	1578	-0.0919499
17.1785	1584	-0.09221
17.2291	1590	-0.0920796
17.2794	1596	-0.0921247
17.3305	1602	-0.0924821
17.381	1608	-0.0929174
17.4314	1614	-0.0926699
17.482	1620	-0.0925589
17.533	1626	-0.0919804
17.5836	1632	-0.0929419
17.6339	1638	-0.0933766
17.6847	1644	-0.0930318
17.7353	1650	-0.0940708
17.7862	1656	-0.0932391
17.8367	1662	-0.0934009
17.8873	1668	-0.0935823
17.9382	1674	-0.0935496
17.9884	1680	-0.0943539
18.0389	1686	-0.0936783
18.0898	1692	-0.0942685
18.1405	1698	-0.0946833
18.1908	1704	-0.0938913
18.2418	1710	-0.0943253
18.2924	1716	-0.0946233
18.343	1722	-0.0949989
18.3934	1728	-0.0960744
18.4445	1734	-0.0946801
18.4954	1740	-0.0948612
18.5453	1746	-0.0952365
18.5958	1752	-0.0951062
18.6469	1758	-0.0958703
18.6974	1764	-0.0956041
18.748	1770	-0.0965036
18.7988	1776	-0.0958099
18.85	1782	-0.0956995
18.8999	1788	-0.096424
18.9501	1794	-0.0962938
19.0016	1800	-0.0959114
19.0524	1806	-0.0956845
19.1023	1812	-0.0968353
19.1528	1818	-0.0968219
19.204	1824	-0.0969442
19.2547	1830	-0.0971052
19.3044	1836	-0.0974988
19.3555	1842	-0.097427
19.407	1848	-0.0976656
19.4568	1854	-0.0983499
19.5071	1860	-0.0988013
19.5584	1866	-0.0986132
19.6094	1872	-0.0993942
19.6592	1878	-0.0990894
19.71	1884	-0.099347
19.7608	1890	-0.0986552
19.8115	1896	-0.09961
19.8619	1902	-0.0996928
19.9124	1908	-0.0994273
19.9638	1914	-0.099065
20.0138	1920	-0.100368
20.0643	1926	-0.0991535
20.1153	1932	-0.100321
20.1665	1938	-0.100732
20.2165	1944	-0.100447
20.2669	1950	-0.101149
20.3178	1956	-0.100304
20.3685	1962	-0.101605
20.4186	1968	-0.101243
20.4701	1974	-0.10061
20.5201	1980	-0.100867
20.5705	1986	-0.102226
20.6211	1992	-0.102096
20.6722	1998	-0.103067
20.7229	2004	-0.103285
20.773	2010	-0.102305
20.8238	2016	-0.10289
20.875	2022	-0.10303
20.9251	2028	-0.104233
20.9756	2034	-0.103118
21.0269	2040	-0.103953
21.0772	2046	-0.10363
21.1273	2052	-0.103365
21.1782	2058	-0.102984
21.2295	2064	-0.104341
21.2796	2070	-0.103998
21.33	2076	-0.1041
21.3814	2082	-0.104472
21.4319	2088	-0.104631
21.4819	2094	-0.105311
21.5326	2100	-0.105991
21.5841	2106	-0.105475
21.6345	2112	-0.106656
21.6842	2118	-0.10589
21.7353	2124	-0.106107
21.7865	2130	-0.106517
21.8368	2136	-0.10656
21.8871	2142	-0.105024
21.9381	2148	-0.105857
21.9885	2154	-0.106132
22.0393	2160	-0.106907
22.0901	2166	-0.107913
22.1411	2172	-0.107206
22.1909	2178	-0.108058
22.2417	2184	-0.107196
22.2925	2190	-0.107047
22.3434	2196	-0.107783
22.3938	2202	-0.107961
22.4445	2208	-0.108716
22.4956	2214	-0.108798
22.5463	2220	-0.109303
22.5964	2226	-0.108192
22.6471	2232	-0.109235
22.698	2238	-0.110201
22.748	2244	-0.110571
22.7981	2250	-0.109999
22.8494	2256	-0.110061
22.9001	2262	-0.110489
22.9506	2268	-0.110781
23.0009	2274	-0.110344
23.052	2280	-0.111021
23.1026	2286	-0.111525
23.1525	2292	-0.112163
23.2034	2298	-0.11161
23.2549	2304	-0.111711
23.3047	2310	-0.112426
23.3551	2316	-0.112756
23.4064	2322	-0.111705
23.4573	2328	-0.112075
23.5076	2334	-0.112309
23.558	2340	-0.113196
23.6092	2346	-0.112452
23.6599	2352	-0.11284
23.7099	2358	-0.113688
23.7613	2364	-0.113041
23.8121	2370	-0.113179
23.8621	2376	-0.113126
23.9123	2382	-0.11338
23.9634	2388	-0.113557
24.014	2394	-0.114155
24.0636	2400	-0.114006
24.1144	2406	-0.114681
24.1656	2412	-0.114685
24.216	2418	-0.115149
24.2659	2424	-0.115249
24.3172	2430	-0.1142
24.3679	2436	-0.114741
24.4177	2442	-0.115415
24.4684	2448	-0.116892
24.5196	2454	-0.116016
24.5701	2460	-0.114777
24.62	2466	-0.115451
24.6709	2472	-0.116793
24.7219	2478	-0.115784
24.772	2484	-0.11619
24.822	2490	-0.117112
24.8731	2496	-0.116906
24.9243	2502	-0.118152
24.9741	2508	-0.118271
25.0246	2514	-0.118389
25.076	2520	-0.117553
25.1266	2526	-0.118665
25.1766	2532	-0.118344
25.2275	2538	-0.119895
25.2783	2544	-0.11946
25.3289	2550	-0.120781
25.3791	2556	-0.118819
25.4301	2562	-0.119873
25.4811	2568	-0.120201
25.531	2574	-0.12072
25.5813	2580	-0.121182
25.6331	2586	-0.119678
25.6831	2592	-0.121094
25.7335	2598	-0.121517
25.7844	2604	-0.12133
25.8352	2610	-0.121754
25.8855	2616	-0.122692
25.9358	2622	-0.122447
25.9872	2628	-0.122375
26.0387	2634	-0.122741
26.0889	2640	-0.123202
26.1383	2646	-0.123186
26.1895	2652	-0.122866
26.2406	2658	-0.121822
26.2907	2664	-0.122607
26.3415	2670	-0.123106
26.3929	2676	-0.12309
26.443	2682	-0.123342
26.4935	2688	-0.122755
26.5447	2694	-0.123025
26.595	2700	-0.123486
26.6452	2706	-0.123166
26.6956	2712	-0.12277
26.7471	2718	-0.123764
26.7974	2724	-0.124224
26.8475	2730	-0.124095
26.8984	2736	-0.124478
26.9499	2742	-0.124596
26.9999	2748	-0.123687
27.0499	2754	-0.123653
27.101	2760	-0.12455
27.1519	2766	-0.125295
27.202	2772	-0.126838
27.2527	2778	-0.126005
27.3046	2784	-0.12523
27.3549	2790	-0.12531
27.4045	2796	-0.125446
27.4551	2802	-0.124804
27.5065	2808	-0.125568
27.5567	2814	-0.126236
27.607	2820	-0.126069
27.6581	2826	-0.126034
27.7086	2832	-0.125905
27.7592	2838	-0.126535
27.8094	2844	-0.12726
27.8607	2850	-0.127055
27.9114	2856	-0.12685
27.9616	2862	-0.127233
28.0119	2868	-0.127331
28.0637	2874	-0.128321
28.1136	2880	-0.127073
28.1636	2886	-0.128271
28.2143	2892	-0.12727
28.2658	2898	-0.128145
28.3161	2904	-0.129817
28.3663	2910	-0.127717
28.4174	2916	-0.128952
28.4684	2922	-0.128576
28.5179	2928	-0.12786
28.5686	2934	-0.128261
28.6204	2940	-0.128454
28.6705	2946	-0.128818
28.7201	2952	-0.128424
28.7713	2958	-0.129014
28.8222	2964	-0.13023
28.8732	2970	-0.128927
28.923	2976	-0.130123
28.974	2982	-0.129161
29.0253	2988	-0.129865
29.0752	2994	-0.13055
29.1255	3000	-0.13078
29.1767	3006	-0.130462
29.2277	3012	-0.13039
29.2775	3018	-0.130942
29.3278	3024	-0.130624
29.3794	3030	-0.131308
29.4295	3036	-0.130707
29.4799	3042	-0.131504
29.5305	3048	-0.131753
29.5817	3054	-0.132324
29.6321	3060	-0.132459
29.6825	3066	-0.132274
29.7332	3072	-0.132976
29.7838	3078	-0.132451
29.8343	3084	-0.133342
29.8846	3090	-0.133137
29.9362	3096	-0.133424
29.9866	3102	-0.132672
30.0367	3108	-0.132751
30.0876	3114	-0.133566
30.1385	3120	-0.133419
30.1886	3126	-0.134498
30.2388	3132	-0.133689
30.2903	3138	-0.135278
30.3409	3144	-0.135602
30.3909	3150	-0.134983
30.4419	3156	-0.13491
30.493	3162	-0.13465
30.543	3168	-0.134842
30.5936	3174	-0.135316
30.6448	3180	-0.135112
30.6955	3186	-0.135549
30.7456	3192	-0.136476
30.796	3198	-0.137195
30.8475	3204	-0.135992
30.898	3210	-0.135393
30.9477	3216	-0.136621
30.9985	3222	-0.136379
31.0497	3228	-0.137305
31.1003	3234	-0.137422
31.1501	3240	-0.137256
31.201	3246	-0.136863
31.2527	3252	-0.136961
31.3025	3258	-0.137171
31.3524	3264	-0.1374
31.4042	3270	-0.138175
31.4548	3276	-0.137708
31.505	3282	-0.136996
31.5553	3288	-0.137508
31.6065	3294	-0.138301
31.6569	3300	-0.139207
31.7068	3306	-0.139455
31.758	3312	-0.139025
31.8093	3318	-0.13963
31.859	3324	-0.139446
31.9092	3330	-0.139562
31.9607	3336	-0.14026
32.0118	3342	-0.140132
32.0612	3348	-0.140361
32.1118	3354	-0.139142
32.163	3360	-0.138826
32.2137	3366	-0.140427
32.2637	3372	-0.141669
32.3144	3378	-0.141522
32.3657	3384	-0.140868
32.416	3390	-0.14074
32.4662	3396	-0.141663
32.517	3402	-0.141816
32.5682	3408	-0.141369
32.6186	3414	-0.141616
32.6687	3420	-0.140156
32.7201	3426	-0.141979
32.7704	3432	-0.142226
32.8205	3438	-0.141348
32.8713	3444	-0.142645
32.9225	3450	-0.143174
32.9729	3456	-0.141808
33.0231	3462	-0.142786
33.0739	3468	-0.143258
33.125	3474	-0.141986
33.1753	3480	-0.143133
33.2255	3486	-0.14203
33.2766	3492	-0.142446
33.3274	3498	-0.142431
33.3775	3504	-0.143184
33.4282	3510	-0.143749
33.4791	3516	-0.14334
33.5291	3522	-0.143568
33.5794	3528	-0.144339
33.631	3534	-0.143762
33.6818	3540	-0.143428
33.7318	3546	-0.144087
33.7826	3552	-0.144109
33.8334	3558	-0.144261
33.8839	3564	-0.14477
33.9338	3570	-0.144212
33.9847	3576	-0.145095
34.0356	3582	-0.144518
34.0859	3588	-0.144896
34.1362	3594	-0.145404
34.1872	3600	-0.14464
34.238	3606	-0.144026
34.2878	3612	-0.144946
34.3382	3618	-0.145529
34.3903	3624	-0.145476
34.4408	3630	-0.146527
34.4903	3636	-0.147035
34.541	3642	-0.146402
34.5925	3648	-0.146368
34.6435	3654	-0.1474
34.6927	3660	-0.146655
34.7435	3666	-0.146397
34.7951	3672	-0.146195
34.8453	3678	-0.146516
34.895	3684	-0.148256
34.9466	3690	-0.147083
34.9974	3696	-0.146937
35.0472	3702	-0.146847
35.0979	3708	-0.146346
35.149	3714	-0.147115
35.1999	3720	-0.146652
35.2498	3726	-0.147401
35.3003	3732	-0.147218
35.3517	3738	-0.147222
35.4018	3744	-0.146759
35.4525	3750	-0.147228
35.5033	3756	-0.148221
35.5541	3762	-0.147142
35.6041	3768	-0.148172
35.6546	3774	-0.147727
35.7062	3780	-0.14775
35.7565	3786	-0.148592
35.806	3792	-0.148241
35.8572	3798	-0.14886
35.9084	3804	-0.149031
35.9588	3810	-0.148438
36.0091	3816	-0.148889
36.0595	3822	-0.148911
36.1105	3828	-0.149157
36.1608	3834	-0.149626
36.2112	3840	-0.149797
36.2625	3846	-0.148665
36.3126	3852	-0.149525
36.3631	3858	-0.149752
36.4142	3864	-0.149941
36.4652	3870	-0.149759
36.5151	3876	-0.149781
36.5657	3882	-0.151423
36.6171	3888	-0.150812
36.6673	3894	-0.150127
36.7173	3900	-0.1516
36.7686	3906	-0.150599
36.8196	3912	-0.150472
36.8699	3918	-0.151536
36.92	3924	-0.151428
36.971	3930	-0.150595
37.0216	3936	-0.150803
37.0717	3942	-0.151048
37.1227	3948	-0.152205
37.1737	3954	-0.152227
37.2238	3960	-0.151319
37.2743	3966	-0.15097
37.3252	3972	-0.152126
37.376	3978	-0.152706
37.4258	3984	-0.153193
37.4767	3990	-0.152954
37.528	3996	-0.152419
37.5784	4002	-0.154021
37.6281	4008	-0.153039
37.6786	4014	-0.152282
37.7304	4020	-0.152193
37.7809	4026	-0.152697
37.8308	4032	-0.152794
37.8814	4038	-0.151944
37.9329	4044	-0.152579
37.9827	4050	-0.152898
38.0329	4056	-0.152586
38.0841	4062	-0.154149
38.1351	4068	-0.154413
38.1854	4074	-0.154101
38.236	4080	-0.153455
38.2867	4086	-0.154869
38.3373	4092	-0.154149
38.3877	4098	-0.152743
38.4381	4104	-0.154008
38.4894	4110	-0.154476
38.5395	4116	-0.154368
38.5902	4122	-0.155188
38.641	4128	-0.154302
38.6911	4134	-0.154528
38.7421	4140	-0.155125
38.7925	4146	-0.155907
38.8435	4152	-0.155522
38.8935	4158	-0.155415
38.9442	4164	-0.154881
38.9955	4170	-0.154217
39.0459	4176	-0.154426
39.0958	4182	-0.154633
39.1473	4188	-0.154655
39.1985	4194	-0.155308
39.2479	4200	-0.154979
39.2984	4206	-0.154482
39.3499	4212	-0.154449
39.4009	4218	-0.154805
39.4501	4224	-0.154828
39.5003	4230	-0.15498
39.5518	4236	-0.155521
39.6028	4242	-0.156136
39.6524	4248	-0.155362
39.7034	4254	-0.155107
39.7543	4260	-0.155537
39.8047	4266	-0.15667
39.8547	4272	-0.156248
39.9063	4278	-0.154754
39.9573	4284	-0.155628
40.0071	4290	-0.156742
40.0566	4296	-0.156487
40.1085	4302	-0.155437
40.1591	4308	-0.15546
40.2093	4314	-0.155945
40.2592	4320	-0.156485
40.3106	4326	-0.155731
40.3619	4332	-0.156105
40.4112	4338	-0.156035
40.4622	4344	-0.155393
40.5138	4350	-0.156635
40.5639	4356	-0.155439
40.614	4362	-0.155923
40.665	4368	-0.156796
40.7159	4374	-0.157262
40.7656	4380	-0.157747
40.8164	4386	-0.157732
40.8676	4392	-0.15733
40.9182	4398	-0.156412
40.9682	4404	-0.156564
41.0195	4410	-0.156734
41.0697	4416	-0.15624
41.1204	4422	-0.157297
41.1703	4428	-0.156286
41.2217	4434	-0.157084
41.2723	4440	-0.157679
41.3227	4446	-0.158108
41.3727	4452	-0.156194
41.4242	4458	-0.157398
41.475	4464	-0.157716
41.5249	4470	-0.15689
41.5754	4476	-0.157373
41.6265	4482	-0.154351
41.6774	4488	-0.153231
41.727	4494	-0.15202
41.7785	4500	-0.152873
41.8294	4506	-0.154149
41.879	4512	-0.153454
41.9296	4518	-0.154105
41.9808	4524	-0.156008
42.0317	4530	-0.157359
42.0818	4536	-0.157696
42.1322	4542	-0.159506
42.1834	4548	-0.160801
42.2339	4554	-0.160861
42.2843	4560	-0.161676
42.3345	4566	-0.161662
42.3858	4572	-0.160673
42.4364	4578	-0.16217
42.4862	4584	-0.162303
42.5371	4590	-0.162675
42.5883	4596	-0.161889
42.6384	4602	-0.162058
42.6886	4608	-0.159097
42.7404	4614	-0.157133
42.7908	4620	-0.156991
42.8406	4626	-0.157364
42.8911	4632	-0.157903
42.9461	4638	-0.15835
43.0048	4644	-0.158558
43.0555	4650	-0.159078
43.1045	4656	-0.160131
43.1555	4662	-0.158885
43.2087	4668	-0.159148
43.2582	4674	-0.159447
43.3072	4680	-0.159177
43.3583	4686	-0.159991
43.4073	4692	-0.160456
43.4562	4698	-0.161031
43.506	4704	-0.161734
43.5555	4710	-0.161886
43.6055	4716	-0.160457
43.655	4722	-0.161547
43.7046	4728	-0.160505
43.753	4734	-0.161245
43.8026	4740	-0.160956
43.8541	4746	-0.161164
43.9048	4752	-0.161445
43.9541	4758	-0.161541
44.0096	4764	-0.161142
44.0658	4770	-0.161111
44.1142	4776	-0.162071
44.1626	4782	-0.16237
44.214	4788	-0.161659
44.2649	4794	-0.161921
44.3136	4800	-0.160458
44.3638	4806	-0.159637
44.4153	4812	-0.160854
44.466	4818	-0.1613
44.5154	4824	-0.161931
44.565	4830	-0.163277
44.6172	4836	-0.163613
44.6669	4842	-0.163819
44.7158	4848	-0.163329
44.7671	4854	-0.16183
44.8172	4860	-0.162037
44.8678	4866	-0.161144
44.919	4872	-0.161993
44.9701	4878	-0.160898
45.0199	4884	-0.160335
45.0684	4890	-0.160194
45.1197	4896	-0.159814
45.1708	4902	-0.159507
45.2201	4908	-0.157679
45.2698	4914	-0.157063
45.3215	4920	-0.158774
45.3727	4926	-0.160668
45.4221	4932	-0.160838
45.4721	4938	-0.16044
45.5227	4944	-0.16008
45.5735	4950	-0.160086
45.6249	4956	-0.160879
45.6761	4962	-0.159255
45.7252	4968	-0.159316
45.7758	4974	-0.158681
45.8267	4980	-0.159674
45.8705	4986	-0.15629
45.9167	4992	-0.155802
45.9683	4998	-0.156487
46.0204	5004	-0.156621
46.0712	5010	-0.15822
46.1216	5016	-0.158995
46.172	5022	-0.159679
46.2246	5028	-0.161351
46.2756	5034	-0.16143
46.3252	5040	-0.161839
46.376	5046	-0.162613
46.4282	5052	-0.161906
46.4803	5058	-0.162461
46.5344	5064	-0.163583
46.5873	5070	-0.164614
46.6333	5076	-0.163851
46.6803	5082	-0.164113
46.7318	5088	-0.164851
46.7844	5094	-0.163704
46.8355	5100	-0.163492
46.8848	5106	-0.163626
46.9352	5112	-0.164455
46.9873	5118	-0.16437
47.0383	5124	-0.164668
47.0881	5130	-0.164766
47.1389	5136	-0.164114
47.1971	5142	-0.163737
47.2546	5148	-0.16345
47.3036	5154	-0.165668
47.3522	5160	-0.165273
47.403	5166	-0.165937
47.4537	5172	-0.166875
47.5052	5178	-0.165967
47.5548	5184	-0.165023
47.6055	5190	-0.165194
47.6562	5196	-0.16458
47.7072	5202	-0.164823
47.757	5208	-0.163496
47.8069	5214	-0.164708
47.8577	5220	-0.163473
47.9087	5226	-0.163735
47.9579	5232	-0.163942
48.0089	5238	-0.161648
48.0604	5244	-0.162604
48.1118	5250	-0.162958
48.1626	5256	-0.162837
48.2103	5262	-0.162588
48.2617	5268	-0.164238
48.3123	5274	-0.164482
48.3619	5280	-0.163995
48.4134	5286	-0.163272
48.4638	5292	-0.163425
48.513	5298	-0.163451
48.5628	5304	-0.16488
48.6139	5310	-0.164102
48.6632	5316	-0.164145
48.7122	5322	-0.164098
48.7622	5328	-0.165144
48.8136	5334	-0.164275
48.8661	5340	-0.164009
48.9167	5346	-0.163524
48.9661	5352	-0.16508
49.016	5358	-0.165834
49.0667	5364	-0.165131
49.1181	5370	-0.164755
49.1679	5376	-0.164889
49.2178	5382	-0.164258
49.2696	5388	-0.163919
49.3213	5394	-0.163361
49.3716	5400	-0.163678
49.4229	5406	-0.162847
49.4735	5412	-0.162708
49.5228	5418	-0.163171
49.5726	5424	-0.163797
49.6234	5430	-0.16355
49.6736	5436	-0.164851
49.7247	5442	-0.16402
49.777	5448	-0.164009
49.8257	5454	-0.164435
49.874	5460	-0.165735
49.9265	5466	-0.163994
49.9799	5472	-0.163073
50.0282	5478	-0.163627
50.0776	5484	-0.164126
50.1303	5490	-0.163005
50.1812	5496	-0.16354
50.2305	5502	-0.164385
50.2793	5508	-0.163828
50.332	5514	-0.16298
50.3821	5520	-0.162552
50.4307	5526	-0.162286
50.4823	5532	-0.162602
50.5336	5538	-0.162555
50.5843	5544	-0.162491
50.6352	5550	-0.162534
50.6863	5556	-0.162887
50.7362	5562	-0.160257
50.7863	5568	-0.161521
50.8381	5574	-0.162147
50.8897	5580	-0.163027
50.9401	5586	-0.164472
50.989	5592	-0.164262
51.0391	5598	-0.164269
51.0894	5604	-0.163259
51.1396	5610	-0.163322
51.1908	5616	-0.164039
51.2412	5622	-0.163956
51.2935	5628	-0.163728
51.3428	5634	-0.164354
51.3919	5640	-0.165979
51.4427	5646	-0.165496
51.4938	5652	-0.163686
51.5436	5658	-0.162531
51.5947	5664	-0.162667
51.6459	5670	-0.162875
51.6963	5676	-0.163574
51.7432	5682	-0.1634
51.7958	5688	-0.162482
51.8531	5694	-0.163907
51.9033	5700	-0.164042
51.9498	5706	-0.162269
52.0035	5712	-0.162224
52.0569	5718	-0.162868
52.1062	5724	-0.16353
52.1555	5730	-0.162321
52.2071	5736	-0.162057
52.2574	5742	-0.16203
52.3062	5748	-0.163672
52.3559	5754	-0.163589
52.4088	5760	-0.162418
52.4597	5766	-0.163189
52.5093	5772	-0.164559
52.5584	5778	-0.164531
52.6093	5784	-0.163795
52.6577	5790	-0.163441
52.7065	5796	-0.163849
52.7582	5802	-0.164892
52.8134	5808	-0.1651
52.8646	5814	-0.163657
52.913	5820	-0.165008
52.9638	5826	-0.163909
53.0137	5832	-0.16381
53.0636	5838	-0.164562
53.1157	5844	-0.1635
53.1657	5850	-0.16106
53.2148	5856	-0.162302
53.2689	5862	-0.161912
53.3209	5868	-0.162864
53.369	5874	-0.163091
53.4184	5880	-0.161939
53.4715	5886	-0.163997
53.522	5892	-0.163099
53.5727	5898	-0.164794
53.6219	5904	-0.164857
53.6732	5910	-0.165337
53.724	5916	-0.165057
53.7737	5922	-0.16628
53.8241	5928	-0.166579
53.8743	5934	-0.165591
53.9251	5940	-0.166507
53.9763	5946	-0.167077
54.026	5952	-0.166234
54.0764	5958	-0.16512
54.1257	5964	-0.164839
54.1752	5970	-0.165754
54.2257	5976	-0.166089
54.2783	5982	-0.166189
54.3303	5988	-0.16493
54.3795	5994	-0.166678
54.4318	6000	-0.165636
54.4847	6006	-0.164813
54.5355	6012	-0.16388
54.5852	6018	-0.16302
54.635	6024	-0.163409
54.684	6030	-0.164469
54.7341	6036	-0.162794
54.7858	6042	-0.163401
54.8368	6048	-0.164823
54.8871	6054	-0.162787
54.937	6060	-0.165023
54.9882	6066	-0.163493
55.0389	6072	-0.164499
55.0878	6078	-0.164382
55.1361	6084	-0.165115
55.1888	6090	-0.162464
55.2374	6096	-0.163469
55.2864	6102	-0.164347
55.3382	6108	-0.164538
55.3897	6114	-0.163516
55.4397	6120	-0.164069
55.4893	6126	-0.165037
55.5406	6132	-0.164395
55.5915	6138	-0.16379
55.6408	6144	-0.164397
55.6907	6150	-0.164262
55.7429	6156	-0.163964
55.7934	6162	-0.164788
55.8434	6168	-0.164671
55.8945	6174	-0.161842
55.9466	6180	-0.164456
55.9977	6186	-0.163995
56.0478	6192	-0.162558
56.099	6198	-0.162984
56.1503	6204	-0.163971
56.1997	6210	-0.164831
56.2499	6216	-0.165419
56.3015	6222	-0.164471
56.3526	6228	-0.165584
56.4016	6234	-0.165612
56.4524	6240	-0.164158
56.5038	6246	-0.164945
56.5547	6252	-0.164811
56.6043	6258	-0.163827
56.6554	6264	-0.164867
56.7071	6270	-0.165365
56.7564	6276	-0.165972
56.8075	6282	-0.166615
56.8592	6288	-0.166571
56.909	6294	-0.167249
56.959	6300	-0.166139
57.0096	6306	-0.165987
57.0598	6312	-0.166702
57.1101	6318	-0.165104
57.1613	6324	-0.165313
57.2128	6330	-0.165071
57.2639	6336	-0.164467
57.3131	6342	-0.163701
57.3648	6348	-0.164109
57.418	6354	-0.164192
57.4695	6360	-0.163426
57.5179	6366	-0.16387
57.5676	6372	-0.16462
57.618	6378	-0.164758
57.6676	6384	-0.164209
57.7193	6390	-0.164129
57.7716	6396	-0.163363
57.8229	6402	-0.164692
57.8731	6408	-0.16436
57.9236	6414	-0.163901
57.9751	6420	-0.165645
58.0255	6426	-0.165385
58.074	6432	-0.16498
58.1232	6438	-0.164089
58.174	6444	-0.164984
58.2244	6450	-0.163028
58.2748	6456	-0.164338
58.3266	6462	-0.163122
58.3773	6468	-0.163801
58.4272	6474	-0.164263
58.477	6480	-0.164454
58.5292	6486	-0.1647
58.5803	6492	-0.163845
58.6299	6498	-0.163729
58.6811	6504	-0.162279
58.7323	6510	-0.163337
58.7821	6516	-0.163601
58.8314	6522	-0.162295
58.8838	6528	-0.16218
58.9359	6534	-0.163743
58.9855	6540	-0.162726
59.0355	6546	-0.163026
59.0875	6552	-0.163182
59.1402	6558	-0.162436
59.1883	6564	-0.163312
59.237	6570	-0.164387
59.2895	6576	-0.16146
59.3404	6582	-0.163545
59.3908	6588	-0.16352
59.4404	6594	-0.163982
59.4894	6600	-0.163832
59.5398	6606	-0.164637
59.5918	6612	-0.165315
59.6437	6618	-0.163037
59.693	6624	-0.162598
59.7421	6630	-0.163799
59.7922	6636	-0.163559
59.8446	6642	-0.164508
59.8959	6648	-0.163654
59.9464	6654	-0.16399
59.9978	6660	-0.163551
60.0488	6666	-0.16259
60.099	6672	-0.162043
60.1495	6678	-0.164127
60.1995	6684	-0.163454
60.2482	6690	-0.1637
60.2986	6696	-0.163226
60.3504	6702	-0.162373
60.4003	6708	-0.162925
60.4499	6714	-0.163369
60.5008	6720	-0.162138
60.5527	6726	-0.163448
60.6035	6732	-0.163983
60.6528	6738	-0.165201
60.7034	6744	-0.165356
60.7547	6750	-0.160776
60.8055	6756	-0.161472
60.855	6762	-0.162151
60.9051	6768	-0.161425
60.9574	6774	-0.159528
61.0073	6780	-0.161179
61.057	6786	-0.162848
61.1087	6792	-0.162464
61.1588	6798	-0.162278
61.2071	6804	-0.162507
61.2594	6810	-0.163671
61.3124	6816	-0.163576
61.3619	6822	-0.162598
61.4109	6828	-0.16369
61.4618	6834	-0.163505
61.5135	6840	-0.164021
61.5646	6846	-0.16254
61.6152	6852	-0.16491
61.6673	6858	-0.165589
61.7175	6864	-0.165907
61.7654	6870	-0.165326
61.8186	6876	-0.165446
61.8703	6882	-0.165386
61.9184	6888	-0.165129
61.9645	6894	-0.164206
62.0175	6900	-0.165101
62.0753	6906	-0.164304
62.1256	6912	-0.16464
62.1744	6918	-0.164437
62.2256	6924	-0.163604
62.2782	6930	-0.163329
62.3275	6936	-0.163288
62.3764	6942	-0.163426
62.4279	6948	-0.162468
62.4789	6954	-0.163056
62.5281	6960	-0.162997
62.5786	6966	-0.16319
62.6296	6972	-0.162555
62.6802	6978	-0.162604
62.7299	6984	-0.161016
62.7813	6990	-0.160903
62.8322	6996	-0.160053
62.8811	7002	-0.161451
62.9313	7008	-0.160422
62.9818	7014	-0.162395
63.032	7020	-0.164062
63.0829	7026	-0.162997
63.1336	7032	-0.161967
63.1855	7038	-0.162142
63.2361	7044	-0.162569
63.2846	7050	-0.162618
63.3334	7056	-0.163674
63.383	7062	-0.163526
63.4343	7068	-0.161993
63.4856	7074	-0.164038
63.5351	7080	-0.160671
63.5848	7086	-0.162626
63.6361	7092	-0.160446
63.6877	7098	-0.158823
63.7409	7104	-0.159322
63.7894	7110	-0.159228
63.8402	7116	-0.159242
63.893	7122	-0.159741
63.9437	7128	-0.160563
63.9926	7134	-0.161224
64.0447	7140	-0.16122
64.0957	7146	-0.16118
64.1462	7152	-0.161481
64.1959	7158	-0.161639
64.2467	7164	-0.161437
64.2957	7170	-0.162547
64.3459	7176	-0.162075
64.3977	7182	-0.163796
64.4497	7188	-0.164475
64.4975	7194	-0.164093
64.5458	7200	-0.163029