File: rawdata/empty_6
empty
Furnace temperature 	Time	HeatFlow
/°C	/s	/mW
7.69487	0	0.0459071
7.39451	6	0.0518779
6.86983	12	0.0575065
6.39865	18	0.0664124
6.04626	24	0.0732466
5.77898	30	0.0832153
5.57802	36	0.0978244
5.42293	42	0.120675
5.30051	48	0.153477
5.20489	54	0.192152
5.13288	60	0.242641
5.07637	66	0.299788
5.03483	72	0.361977
5.00629	78	0.425582
4.98884	84	0.489932
4.97964	90	0.552239
4.97731	96	0.609939
4.98255	102	0.662746
4.99248	108	0.70984
5.00767	114	0.749145
5.02757	120	0.781156
5.05098	126	0.805836
5.07781	132	0.823096
5.10757	138	0.832488
5.13977	144	0.836112
5.17421	150	0.833402
5.21077	156	0.825254
5.24911	162	0.81198
5.16678	168	0.794558
5.11975	174	0.773311
5.10577	180	0.74928
5.11084	186	0.721997
5.12905	192	0.693551
5.15547	198	0.662608
5.18856	204	0.630424
5.2277	210	0.59882
5.2714	216	0.566462
5.31757	222	0.533109
5.36791	228	0.501065
5.42052	234	0.468247
5.4745	240	0.436051
5.52917	246	0.40492
5.58567	252	0.374651
5.64411	258	0.345708
5.70183	264	0.316818
5.7619	270	0.290727
5.82199	276	0.264568
5.88146	282	0.239652
5.94186	288	0.216243
6.00205	294	0.192903
6.06207	300	0.170882
6.1229	306	0.149838
6.18447	312	0.131184
6.24511	318	0.114131
6.30434	324	0.0968837
6.36377	330	0.0809738
6.42415	336	0.0655939
6.48343	342	0.0517519
6.54261	348	0.0378142
6.60179	354	0.0257557
6.66074	360	0.0144472
6.71879	366	0.003606118
6.77691	372	-0.00531757
6.83582	378	-0.0152853
6.89226	384	-0.0226923
6.95146	390	-0.0311837
7.01004	396	-0.0373979
7.06783	402	-0.044636
7.1206	408	-0.0504029
7.17917	414	-0.0552022
7.23553	420	-0.0610257
7.29158	426	-0.065359
7.34912	432	-0.0701733
7.40455	438	-0.0740613
7.45968	444	-0.0772444
7.51445	450	-0.0801452
7.56851	456	-0.0835473
7.6235	462	-0.0858637
7.67849	468	-0.0890428
7.73249	474	-0.0907346
7.78639	480	-0.0926472
7.84066	486	-0.09492
7.89538	492	-0.0958875
7.94827	498	-0.0970555
8.00169	504	-0.0980829
8.05554	510	-0.0996315
8.10937	516	-0.09999577
8.16196	522	-0.100821
8.21497	528	-0.101286
8.26833	534	-0.10165
8.32153	540	-0.1015931
8.37356	546	-0.101637
8.42623	552	-0.10182
8.47937	558	-0.102545
8.53132	564	-0.101887
8.58306	570	-0.101249
8.63577	576	-0.101713
8.68852	582	-0.101636
8.74002	588	-0.100799
8.79172	594	-0.101343
8.84446	600	-0.100506
8.89634	606	-0.100389
8.94789	612	-0.100573
8.99961	618	-0.100036
9.05172	624	-0.0993201
9.10322	630	-0.0987441
9.15449	636	-0.0981084
9.20643	642	-0.0973528
9.25859	648	-0.0975766
9.30957	654	-0.0971613
9.36061	660	-0.0958669
9.4121	666	-0.09553165
9.46435	672	-0.0955161
9.51528	678	-0.0944424
9.56654	684	-0.0947467
9.61814	690	-0.0945118
9.66955	696	-0.09359815
9.72031	702	-0.093683
9.7715	708	-0.09346851
9.8237	714	-0.09349335
9.87456	720	-0.0923612
9.92516	726	-0.0921471
9.97635	732	-0.0920326
10.0282	738	-0.0910807
10.079	744	-0.0910463
10.1295	750	-0.0909522
10.1811	756	-0.0903794
10.2324	762	-0.0900262
10.2826	768	-0.09007176
10.3335	774	-0.0897387
10.3852	780	-0.0904016
10.4362	786	-0.0889733
10.4862	792	-0.0892778
10.5377	798	-0.088965
10.589	804	-0.0890105
10.6398	810	-0.0881407
10.69	816	-0.088306
10.7414	822	-0.0885106
10.7926	828	-0.0875417
10.8429	834	-0.0880253
10.8938	840	-0.0871366
10.9456	846	-0.0874607
10.9959	852	-0.0872281
11.0465	858	-0.0875325
11.0976	864	-0.0867635
11.1491	870	-0.0869086
11.1995	876	-0.0871336
11.2498	882	-0.086246
11.3013	888	-0.0864109
11.3524	894	-0.086437
11.4025	900	-0.0859869
11.4528	906	-0.0864896
11.5046	912	-0.08685299
11.5553	918	-0.0859463
11.6056	924	-0.08656802
11.6567	930	-0.0866536
11.7079	936	-0.0863821
11.7579	942	-0.0869835
11.8087	948	-0.0868708
11.8601	954	-0.0871546
11.9111	960	-0.0871014
11.9612	966	-0.0864339
12.012	972	-0.0867969
12.0632	978	-0.08680319
12.1139	984	-0.0860764
12.1637	990	-0.08701387
12.2149	996	-0.0872974
12.2662	1002	-0.0862344
12.3167	1008	-0.08665657
12.3672	1014	-0.0864849
12.4181	1020	-0.0859965
12.4693	1026	-0.08618097
12.5193	1032	-0.0858313
12.57	1038	-0.086649
12.6216	1044	-0.0864575
12.6719	1050	-0.0863255
12.7222	1056	-0.0868463
12.773	1062	-0.0870108
12.8241	1068	-0.08676
12.8744	1074	-0.0870828
12.9251	1080	-0.08703
12.9763	1086	-0.0870955
13.027	1092	-0.0864499
13.0769	1098	-0.08655531
13.1279	1104	-0.08739125
13.1792	1110	-0.0869631
13.2295	1116	-0.0867721
13.2801	1122	-0.086917
13.3311	1128	-0.08718
13.3819	1134	-0.0873441
13.4319	1140	-0.0874492
13.4826	1146	-0.08787
13.5342	1152	-0.0878368
13.5845	1158	-0.0874289
13.6345	1164	-0.0877509
13.6857	1170	-0.0882502
13.7372	1176	-0.0880199
13.7869	1182	-0.08913
13.8373	1188	-0.08821
13.8885	1194	-0.0879011
13.9394	1200	-0.0875133
13.9897	1206	-0.0882289
14.0402	1212	-0.0884127
14.0916	1218	-0.0882417
14.142	1224	-0.0893505
14.1924	1230	-0.0886874
14.2431	1236	-0.0882215
14.2942	1242	-0.0889953
14.3446	1248	-0.0885881
14.3948	1254	-0.0888701
14.4459	1260	-0.0889748
14.4968	1266	-0.0894529
14.5469	1272	-0.0886332
14.5973	1278	-0.0894263
14.6487	1284	-0.089747
14.6994	1290	-0.0897727
14.7496	1296	-0.0895038
14.8002	1302	-0.0900998
14.8516	1308	-0.0903023
14.902	1314	-0.0895226
14.9517	1320	-0.0899807
15.0025	1326	-0.0904386
15.0542	1332	-0.0900715
15.1044	1338	-0.0907649
15.1547	1344	-0.0907907
15.2058	1350	-0.0900902
15.2571	1356	-0.09095975
15.3068	1362	-0.0905932
15.3573	1368	-0.090874
15.4085	1374	-0.0903503
15.4594	1380	-0.0904153
15.5092	1386	-0.09087275
15.5601	1392	-0.0914868
15.6114	1398	-0.0917083
15.6617	1404	-0.0913419
15.7117	1410	-0.0914462
15.7629	1416	-0.0914913
15.8138	1422	-0.0913993
15.8641	1428	-0.0916603
15.9147	1434	-0.0924107
15.966	1440	-0.0920249
16.0171	1446	-0.0933036
16.0662	1452	-0.0924678
16.1172	1458	-0.091906
16.1689	1464	-0.0928905
16.2191	1470	-0.0923876
16.2691	1476	-0.091846
16.3202	1482	-0.0929868
16.3715	1488	-0.0935598
16.4214	1494	-0.0931942
16.4715	1500	-0.0940802
16.5231	1506	-0.0931669
16.574	1512	-0.0933096
16.6238	1518	-0.0933351
16.6741	1524	-0.0938101
16.7258	1530	-0.09317103
16.7766	1536	-0.0938023
16.8259	1542	-0.0934371
16.8765	1548	-0.0932085
16.9282	1554	-0.0935269
16.9786	1560	-0.093611
17.0284	1566	-0.0937147
17.0794	1572	-0.0940719
17.1307	1578	-0.0943705
17.1809	1584	-0.0944156
17.2311	1590	-0.0942849
17.2824	1596	-0.094193
17.3332	1602	-0.0946085
17.383	1608	-0.0948096
17.4337	1614	-0.0951274
17.485	1620	-0.0944116
17.5357	1626	-0.0944176
17.5857	1632	-0.0944626
17.6359	1638	-0.0951311
17.6875	1644	-0.0950588
17.7378	1650	-0.0949673
17.7878	1656	-0.0949733
17.839	1662	-0.094979
17.8905	1668	-0.0947512
17.9402	1674	-0.0955362
17.9907	1680	-0.0954642
18.0418	1686	-0.0961316
18.0929	1692	-0.0954172
18.1424	1698	-0.0951313
18.1929	1704	-0.09612944
18.2441	1710	-0.0963296
18.2952	1716	-0.0956546
18.3453	1722	-0.0963026
18.3958	1728	-0.0965026
18.4468	1734	-0.0963138
18.4976	1740	-0.0971947
18.5471	1746	-0.0966754
18.5984	1752	-0.0970891
18.6499	1758	-0.0968423
18.6999	1764	-0.0971979
18.7501	1770	-0.09671779
18.8017	1776	-0.0971896
18.8523	1782	-0.0968264
18.902	1788	-0.097609
18.9526	1794	-0.0972844
19.0039	1800	-0.0971542
19.0545	1806	-0.0982666
19.1043	1812	-0.0985438
19.1556	1818	-0.0978312
19.2065	1824	-0.0977012
19.2566	1830	-0.0978234
19.3068	1836	-0.0985079
19.3581	1842	-0.0979315
19.4089	1848	-0.0988294
19.4592	1854	-0.0986605
19.5096	1860	-0.0983364
19.5611	1866	-0.09770219
19.6113	1872	-0.0987742
19.6614	1878	-0.0987022
19.7118	1884	-0.0988046
19.7634	1890	-0.0997403
19.8137	1896	-0.0994554
19.864	1902	-0.0989184
19.915	1908	-0.0988465
19.9656	1914	-0.0999366
20.0161	1920	-0.09963236
20.0661	1926	-0.0994829
20.1177	1932	-0.0996819
20.1683	1938	-0.100133
20.218	1944	-0.100119
20.2695	1950	-0.0997568
20.3204	1956	-0.101175
20.3705	1962	-0.100503
20.4209	1968	-0.101301
20.4722	1974	-0.100611
20.5228	1980	-0.10079
20.5727	1986	-0.101008
20.623	1992	-0.101574
20.6742	1998	-0.101406
20.7256	2004	-0.102068
20.7751	2010	-0.101996
20.8257	2016	-0.101673
20.8774	2022	-0.101659
20.9275	2028	-0.102128
20.9777	2034	-0.102442
21.0289	2040	-0.10237
21.08	2046	-0.102048
21.13	2052	-0.103269
21.1799	2058	-0.103988
21.2315	2064	-0.103627
21.2821	2070	-0.103208
21.3323	2076	-0.103522
21.3825	2082	-0.103623
21.4342	2088	-0.103551
21.4843	2094	-0.10348
21.5343	2100	-0.104314
21.5852	2106	-0.104492
21.6367	2112	-0.104189
21.6866	2118	-0.104175
21.7369	2124	-0.104142
21.788	2130	-0.103916
21.839	2136	-0.103555
21.8891	2142	-0.104312
21.9392	2148	-0.104317
21.9905	2154	-0.104515
22.0415	2160	-0.104636
22.0915	2166	-0.105507
22.1422	2172	-0.105801
22.1931	2178	-0.10621
22.2437	2184	-0.1061382
22.2935	2190	-0.105835
22.3447	2196	-0.106571
22.396	2202	-0.106923
22.4458	2208	-0.106947
22.496	2214	-0.107029
22.5475	2220	-0.106245
22.5983	2226	-0.106981
22.6482	2232	-0.107601
22.6988	2238	-0.106434
22.75	2244	-0.1069002
22.8012	2250	-0.106751
22.8507	2256	-0.107486
22.9009	2262	-0.107415
22.9526	2268	-0.106978
23.0034	2274	-0.108347
23.0528	2280	-0.108505
23.1041	2286	-0.109259
23.1551	2292	-0.108899
23.2055	2298	-0.109153
23.2557	2304	-0.108294
23.3065	2310	-0.107762
23.3576	2316	-0.109456
23.408	2322	-0.108309
23.4583	2328	-0.110175
23.5092	2334	-0.10876
23.5599	2340	-0.1089
23.6101	2346	-0.109537
23.6613	2352	-0.109408
23.7123	2358	-0.109394
23.7619	2364	-0.10936
23.8124	2370	-0.109672
23.8637	2376	-0.109312
23.9153	2382	-0.109873
23.9642	2388	-0.11053
24.0148	2394	-0.109538
24.0665	2400	-0.109696
24.1169	2406	-0.110084
24.1665	2412	-0.109993
24.2177	2418	-0.110381
24.269	2424	-0.110884
24.319	2430	-0.111099
24.369	2436	-0.111085
24.4201	2442	-0.110841
24.4715	2448	-0.110693
24.5212	2454	-0.111807
24.5714	2460	-0.112596
24.6229	2466	-0.112658
24.6742	2472	-0.111592
24.7235	2478	-0.112323
24.7741	2484	-0.111792
24.8256	2490	-0.112161
24.8763	2496	-0.11272
24.9257	2502	-0.112801
24.9766	2508	-0.113302
25.0279	2514	-0.112849
25.0781	2520	-0.113102
25.1281	2526	-0.114061
25.1797	2532	-0.113302
25.2306	2538	-0.112352
25.2807	2544	-0.112108
25.3311	2550	-0.113144
25.3821	2556	-0.112481
25.433	2562	-0.113822
25.4829	2568	-0.113731
25.5334	2574	-0.114365
25.5849	2580	-0.114504
25.6352	2586	-0.114222
25.6852	2592	-0.113463
25.7363	2598	-0.113869
25.7877	2604	-0.114274
25.8374	2610	-0.11487
25.8877	2616	-0.114913
25.9389	2622	-0.114498
25.9896	2628	-0.115685
26.0395	2634	-0.116242
26.0899	2640	-0.116055
26.1418	2646	-0.114688
26.1924	2652	-0.115912
26.242	2658	-0.116355
26.2924	2664	-0.115731
26.3442	2670	-0.116174
26.3947	2676	-0.117035
26.4441	2682	-0.116792
26.4956	2688	-0.116473
26.5468	2694	-0.117601
26.5966	2700	-0.117434
26.6468	2706	-0.117457
26.6981	2712	-0.116929
26.7491	2718	-0.117428
26.7985	2724	-0.117699
26.8497	2730	-0.116942
26.9007	2736	-0.116909
26.9511	2742	-0.11718
27.0013	2748	-0.118344
27.0522	2754	-0.116809
27.103	2760	-0.118505
27.1533	2766	-0.118301
27.2038	2772	-0.1184
27.2552	2778	-0.118348
27.306	2784	-0.118941
27.356	2790	-0.118869
27.4059	2796	-0.118589
27.4574	2802	-0.119221
27.5082	2808	-0.1197
27.5578	2814	-0.118621
27.6088	2820	-0.119025
27.6601	2826	-0.120093
27.7103	2832	-0.120173
27.7601	2838	-0.119456
27.8118	2844	-0.120125
27.8624	2850	-0.120793
27.9122	2856	-0.120551
27.9627	2862	-0.121503
28.0144	2868	-0.120806
28.0653	2874	-0.119919
28.1146	2880	-0.121972
28.1654	2886	-0.121218
28.2171	2892	-0.121886
28.2672	2898	-0.121056
28.317	2904	-0.121553
28.3683	2910	-0.12025
28.4196	2916	-0.120425
28.4693	2922	-0.120713
28.519	2928	-0.120074
28.5714	2934	-0.121594
28.622	2940	-0.122716
28.6716	2946	-0.121754
28.7219	2952	-0.122194
28.7736	2958	-0.12163
28.8246	2964	-0.122638
28.8744	2970	-0.122491
28.9248	2976	-0.123347
28.976	2982	-0.122973
29.0266	2988	-0.123696
29.0764	2994	-0.122395
29.1273	3000	-0.122513
29.1785	3006	-0.123199
29.2287	3012	-0.124565
29.2786	3018	-0.124928
29.3302	3024	-0.122909
29.3813	3030	-0.124407
29.4304	3036	-0.124185
29.4812	3042	-0.123886
29.5331	3048	-0.123853
29.5831	3054	-0.124859
29.633	3060	-0.125184
29.6837	3066	-0.125094
29.7355	3072	-0.125514
29.7858	3078	-0.125821
29.8352	3084	-0.125277
29.8867	3090	-0.125357
29.9377	3096	-0.125323
29.9877	3102	-0.126441
30.0382	3108	-0.126125
30.089	3114	-0.126601
30.1401	3120	-0.126209
30.19	3126	-0.126288
30.2409	3132	-0.125802
30.292	3138	-0.126429
30.3419	3144	-0.127754
30.3921	3150	-0.126871
30.4434	3156	-0.127611
30.4943	3162	-0.127955
30.5445	3168	-0.127865
30.5946	3174	-0.128189
30.6456	3180	-0.127741
30.697	3186	-0.128028
30.7469	3192	-0.126788
30.7973	3198	-0.128131
30.8487	3204	-0.12806
30.8991	3210	-0.128987
30.949	3216	-0.12852
31.0002	3222	-0.128713
31.051	3228	-0.129018
31.1012	3234	-0.128363
31.1512	3240	-0.129422
31.2026	3246	-0.129219
31.2538	3252	-0.130259
31.3037	3258	-0.130018
31.3541	3264	-0.12878
31.4054	3270	-0.128916
31.4561	3276	-0.129409
31.5058	3282	-0.130731
31.5563	3288	-0.129907
31.6075	3294	-0.129592
31.6584	3300	-0.129784
31.7085	3306	-0.129995
31.7591	3312	-0.129868
31.81	3318	-0.130718
31.8609	3324	-0.130158
31.9105	3330	-0.131065
31.9615	3336	-0.131595
32.0128	3342	-0.132125
32.063	3348	-0.131227
32.1128	3354	-0.131927
32.1642	3360	-0.132345
32.215	3366	-0.13216
32.2649	3372	-0.133142
32.3155	3378	-0.132357
32.3669	3384	-0.133037
32.4174	3390	-0.13152
32.4674	3396	-0.13175
32.5182	3402	-0.132223
32.5689	3408	-0.132903
32.6192	3414	-0.13287
32.6697	3420	-0.131391
32.7207	3426	-0.132972
32.7718	3432	-0.133257
32.8217	3438	-0.132624
32.8726	3444	-0.133416
32.9234	3450	-0.133607
32.9741	3456	-0.134043
33.0238	3462	-0.133147
33.0752	3468	-0.133527
33.126	3474	-0.134355
33.1764	3480	-0.134491
33.2265	3486	-0.134983
33.2773	3492	-0.134574
33.3282	3498	-0.134091
33.3783	3504	-0.134414
33.4288	3510	-0.134737
33.4802	3516	-0.135397
33.5308	3522	-0.135419
33.5807	3528	-0.135067
33.6313	3534	-0.135671
33.6831	3540	-0.136368
33.7332	3546	-0.135323
33.7827	3552	-0.135852
33.8344	3558	-0.1363056
33.8857	3564	-0.135299
33.935	3570	-0.135771
33.9853	3576	-0.136711
34.0368	3582	-0.13621
34.0876	3588	-0.136176
34.1377	3594	-0.135844
34.1878	3600	-0.135792
34.2395	3606	-0.135647
34.2898	3612	-0.136436
34.3395	3618	-0.136048
34.3904	3624	-0.136015
34.4421	3630	-0.13744
34.4919	3636	-0.137538
34.5419	3642	-0.136888
34.593	3648	-0.137322
34.6442	3654	-0.138541
34.6942	3660	-0.136882
34.7444	3666	-0.138176
34.7965	3672	-0.137694
34.8465	3678	-0.138109
34.8963	3684	-0.137871
34.9475	3690	-0.138921
34.9988	3696	-0.139317
35.0492	3702	-0.138686
35.0986	3708	-0.138355
35.1499	3714	-0.138508
35.2013	3720	-0.138662
35.2511	3726	-0.138013
35.3009	3732	-0.13938
35.3523	3738	-0.138637
35.4032	3744	-0.139164
35.4529	3750	-0.140064
35.5039	3756	-0.139658
35.5554	3762	-0.140427
35.6053	3768	-0.139554
35.6552	3774	-0.138757
35.707	3780	-0.140943
35.758	3786	-0.139865
35.8073	3792	-0.138674
35.8577	3798	-0.136777
35.9095	3804	-0.134359
35.9598	3810	-0.136432
36.0096	3816	-0.135841
36.0609	3822	-0.134672
36.1121	3828	-0.136298
36.1618	3834	-0.135985
36.2121	3840	-0.137071
36.2634	3846	-0.138976
36.3142	3852	-0.13939
36.3641	3858	-0.141127
36.4145	3864	-0.140927
36.4665	3870	-0.142383
36.5165	3876	-0.142983
36.5661	3882	-0.144011
36.6176	3888	-0.143365
36.6684	3894	-0.145919
36.7185	3900	-0.145141
36.769	3906	-0.145685
36.8205	3912	-0.146415
36.8712	3918	-0.147089
36.9207	3924	-0.147111
36.9713	3930	-0.144678
37.0227	3936	-0.146227
37.0737	3942	-0.147291
37.1234	3948	-0.146756
37.174	3954	-0.147114
37.2256	3960	-0.147842
37.2759	3966	-0.146507
37.3254	3972	-0.146549
37.377	3978	-0.145773
37.4274	3984	-0.146074
37.4778	3990	-0.144647
37.5281	3996	-0.145989
37.5793	4002	-0.145288
37.6298	4008	-0.145237
37.6802	4014	-0.145482
37.7306	4020	-0.145709
37.7818	4026	-0.144915
37.8321	4032	-0.144307
37.8823	4038	-0.145277
37.9342	4044	-0.144688
37.9844	4050	-0.145064
38.0336	4056	-0.145736
38.0845	4062	-0.14394
38.1362	4068	-0.144409
38.1873	4074	-0.145026
38.2366	4080	-0.1449
38.2869	4086	-0.145313
38.339	4092	-0.14465
38.3892	4098	-0.14549
38.439	4104	-0.14657
38.4899	4110	-0.145907
38.5408	4116	-0.145189
38.5917	4122	-0.146602
38.6411	4128	-0.145494
38.6925	4134	-0.145388
38.7437	4140	-0.145318
38.7935	4146	-0.146713
38.8434	4152	-0.146736
38.8946	4158	-0.147631
38.9455	4164	-0.148302
38.9957	4170	-0.147047
39.0465	4176	-0.14681
39.0977	4182	-0.147204
39.1475	4188	-0.146412
39.1979	4194	-0.146676
39.2498	4200	-0.147478
39.3	4206	-0.147279
39.3496	4212	-0.14682
39.4004	4218	-0.146658
39.4515	4224	-0.147089
39.5026	4230	-0.147779
39.5527	4236	-0.148542
39.6028	4242	-0.149121
39.6546	4248	-0.148848
39.705	4254	-0.147353
39.7544	4260	-0.148394
39.8052	4266	-0.149121
39.8574	4272	-0.148626
39.9073	4278	-0.148483
39.9569	4284	-0.147655
40.0079	4290	-0.147716
40.0592	4296	-0.148128
40.1087	4302	-0.148946
40.1589	4308	-0.149653
40.2108	4314	-0.149178
40.2616	4320	-0.150606
40.3111	4326	-0.149686
40.3618	4332	-0.149229
40.4133	4338	-0.151692
40.4641	4344	-0.150422
40.5132	4350	-0.151128
40.5645	4356	-0.149489
40.6156	4362	-0.149235
40.6661	4368	-0.149924
40.7157	4374	-0.151018
40.7675	4380	-0.151522
40.8181	4386	-0.150641
40.8677	4392	-0.15179
40.9184	4398	-0.152109
40.9701	4404	-0.151191
41.0203	4410	-0.150993
41.0699	4416	-0.151588
41.1213	4422	-0.152294
41.1727	4428	-0.15182
41.2226	4434	-0.152304
41.2725	4440	-0.152604
41.3239	4446	-0.151281
41.3746	4452	-0.151821
41.4247	4458	-0.152011
41.4756	4464	-0.152532
41.5268	4470	-0.151744
41.577	4476	-0.152413
41.6269	4482	-0.151717
41.678	4488	-0.152644
41.729	4494	-0.153424
41.7792	4500	-0.153005
41.8292	4506	-0.152678
41.8803	4512	-0.153107
41.9316	4518	-0.153057
41.9813	4524	-0.154445
42.0318	4530	-0.15456
42.0835	4536	-0.153939
42.1338	4542	-0.15435
42.1831	4548	-0.154538
42.2348	4554	-0.154414
42.2856	4560	-0.154659
42.3359	4566	-0.153357
42.3863	4572	-0.154024
42.4373	4578	-0.153643
42.4881	4584	-0.153538
42.5381	4590	-0.153174
42.5887	4596	-0.15283
42.6401	4602	-0.152265
42.6901	4608	-0.154111
42.7402	4614	-0.15338
42.7915	4620	-0.15276
42.8427	4626	-0.153115
42.8923	4632	-0.15404
42.9428	4638	-0.153217
42.9943	4644	-0.153259
43.0449	4650	-0.153486
43.0944	4656	-0.153105
43.1455	4662	-0.153313
43.1964	4668	-0.154404
43.2471	4674	-0.153986
43.2969	4680	-0.154506
43.3479	4686	-0.156644
43.3992	4692	-0.156301
43.449	4698	-0.156766
43.4992	4704	-0.157046
43.5506	4710	-0.156647
43.6015	4716	-0.15601
43.6515	4722	-0.157357
43.7023	4728	-0.157307
43.7531	4734	-0.156908
43.8034	4740	-0.156767
43.8536	4746	-0.158297
43.9052	4752	-0.158137
43.9557	4758	-0.15838
44.0057	4764	-0.155942
44.0561	4770	-0.156133
44.1074	4776	-0.156231
44.158	4782	-0.157246
44.2079	4788	-0.158298
44.259	4794	-0.158451
44.3099	4800	-0.157649
44.3603	4806	-0.15971
44.4106	4812	-0.16078
44.4614	4818	-0.160529
44.5124	4824	-0.159103
44.5622	4830	-0.159163
44.6124	4836	-0.161224
44.6644	4842	-0.159798
44.7146	4848	-0.159602
44.7646	4854	-0.160177
44.8157	4860	-0.160091
44.867	4866	-0.160463
44.9168	4872	-0.159258
44.9668	4878	-0.159502
45.0183	4884	-0.159709
45.0694	4890	-0.160375
45.1182	4896	-0.158896
45.1691	4902	-0.158737
45.2208	4908	-0.159384
45.2716	4914	-0.159243
45.3215	4920	-0.160074
45.3718	4926	-0.161675
45.4227	4932	-0.160012
45.4735	4938	-0.159798
45.5236	4944	-0.158833
45.575	4950	-0.1573
45.6254	4956	-0.15857
45.6754	4962	-0.158209
45.7265	4968	-0.158088
45.7775	4974	-0.158625
45.8271	4980	-0.159327
45.8776	4986	-0.159204
45.9296	4992	-0.158624
45.9801	4998	-0.15777
46.0295	5004	-0.157941
46.0806	5010	-0.158497
46.1313	5016	-0.160151
46.182	5022	-0.161603
46.2323	5028	-0.16009
46.2835	5034	-0.160828
46.3341	5040	-0.160596
46.3842	5046	-0.161554
46.4347	5052	-0.160956
46.4857	5058	-0.161236
46.5365	5064	-0.161005
46.5863	5070	-0.160297
46.6368	5076	-0.160542
46.6885	5082	-0.162322
46.7392	5088	-0.161157
46.789	5094	-0.160506
46.8396	5100	-0.161042
46.8909	5106	-0.162164
46.9409	5112	-0.161201
46.9911	5118	-0.161372
47.0427	5124	-0.161214
47.0932	5130	-0.162463
47.1432	5136	-0.161537
47.1929	5142	-0.162019
47.2449	5148	-0.1616963
47.2957	5154	-0.161411
47.3452	5160	-0.162166
47.3962	5166	-0.162776
47.4472	5172	-0.162253
47.497	5178	-0.163319
47.5476	5184	-0.164311
47.5993	5190	-0.163624
47.6501	5196	-0.162498
47.6998	5202	-0.163088
47.7504	5208	-0.163113
47.801	5214	-0.16343
47.8518	5220	-0.164021
47.9024	5226	-0.163754
47.9528	5232	-0.163705
48.0039	5238	-0.163566
48.0546	5244	-0.162093
48.1044	5250	-0.161863
48.1549	5256	-0.163093
48.2069	5262	-0.163629
48.257	5268	-0.164146
48.307	5274	-0.16293
48.3579	5280	-0.163649
48.4088	5286	-0.162944
48.4591	5292	-0.164264
48.5087	5298	-0.164965
48.5602	5304	-0.164789
48.6117	5310	-0.164358
48.6615	5316	-0.165641
48.7118	5322	-0.165156
48.7629	5328	-0.166019
48.8136	5334	-0.166062
48.8632	5340	-0.164757
48.9144	5346	-0.165602
48.9654	5352	-0.165901
49.0152	5358	-0.16547
49.0658	5364	-0.165677
49.1176	5370	-0.166887
49.1677	5376	-0.164889
49.2174	5382	-0.165152
49.2683	5388	-0.167327
49.3207	5394	-0.167571
49.3702	5400	-0.167013
49.4194	5406	-0.166802
49.4713	5412	-0.166207
49.5223	5418	-0.167198
49.5721	5424	-0.167423
49.6219	5430	-0.166246
49.6739	5436	-0.166927
49.7248	5442	-0.167389
49.7738	5448	-0.166632
49.8243	5454	-0.16795
49.8765	5460	-0.167556
49.9272	5466	-0.167254
49.9771	5472	-0.166715
50.027	5478	-0.166667
50.0786	5484	-0.166529
50.1294	5490	-0.166481
50.1786	5496	-0.166507
50.2297	5502	-0.166915
50.2814	5508	-0.168305
50.3317	5514	-0.167384
50.3815	5520	-0.167774
50.4327	5526	-0.16931
50.4837	5532	-0.168571
50.5332	5538	-0.168378
50.5835	5544	-0.167912
50.6353	5550	-0.169102
50.686	5556	-0.1688
50.7356	5562	-0.169244
50.7865	5568	-0.168833
50.8373	5574	-0.168622
50.8882	5580	-0.168357
50.938	5586	-0.16871
50.9886	5592	-0.168008
51.04	5598	-0.16907
51.0906	5604	-0.170423
51.1408	5610	-0.168722
51.1912	5616	-0.169856
51.2426	5622	-0.170318
51.2929	5628	-0.169217
51.3431	5634	-0.171133
51.3937	5640	-0.170541
51.4446	5646	-0.170422
51.4952	5652	-0.170974
51.5456	5658	-0.171963
51.5968	5664	-0.170626
51.6471	5670	-0.170125
51.6968	5676	-0.170732
51.7478	5682	-0.171938
51.7994	5688	-0.172219
51.8491	5694	-0.170428
51.8993	5700	-0.171126
51.9505	5706	-0.171624
52.0019	5712	-0.171396
52.0522	5718	-0.173274
52.102	5724	-0.172338
52.153	5730	-0.172709
52.204	5736	-0.172698
52.2538	5742	-0.172161
52.3041	5748	-0.173095
52.3557	5754	-0.173611
52.4061	5760	-0.172494
52.4567	5766	-0.171902
52.5072	5772	-0.172164
52.5585	5778	-0.172173
52.6084	5784	-0.172761
52.6585	5790	-0.172606
52.7097	5796	-0.171797
52.761	5802	-0.170136
52.8112	5808	-0.171251
52.8608	5814	-0.172057
52.9121	5820	-0.171321
52.9629	5826	-0.172201
53.0132	5832	-0.172445
53.0636	5838	-0.171981
53.1157	5844	-0.173785
53.1655	5850	-0.173594
53.2148	5856	-0.174164
53.2662	5862	-0.172576
53.3176	5868	-0.172748
53.367	5874	-0.172811
53.4169	5880	-0.173435
53.4688	5886	-0.173226
53.52	5892	-0.173234
53.5702	5898	-0.173079
53.6196	5904	-0.174103
53.671	5910	-0.172897
53.7223	5916	-0.173739
53.7723	5922	-0.17333
53.8223	5928	-0.172378
53.874	5934	-0.172006
53.9246	5940	-0.174334
53.9743	5946	-0.173183
54.0249	5952	-0.174333
54.0764	5958	-0.173472
54.127	5964	-0.17513
54.1767	5970	-0.173852
54.2278	5976	-0.174984
54.2793	5982	-0.174394
54.3291	5988	-0.174584
54.3782	5994	-0.174194
54.4303	6000	-0.17375
54.4812	6006	-0.173705
54.5313	6012	-0.173604
54.5815	6018	-0.173631
54.6327	6024	-0.175161
54.6836	6030	-0.175786
54.7334	6036	-0.175596
54.7843	6042	-0.1745
54.8359	6048	-0.175957
54.8849	6054	-0.176255
54.9351	6060	-0.175377
54.9872	6066	-0.175712
55.0375	6072	-0.176173
55.0873	6078	-0.175657
55.1388	6084	-0.176082
55.1894	6090	-0.176073
55.2396	6096	-0.175232
55.2893	6102	-0.176471
55.3409	6108	-0.175774
55.3926	6114	-0.1781
55.4426	6120	-0.177711
55.492	6126	-0.177647
55.5435	6132	-0.176136
55.5944	6138	-0.177068
55.6448	6144	-0.174238
55.6945	6150	-0.17535
55.7462	6156	-0.175793
55.797	6162	-0.176924
55.8467	6168	-0.178055
55.897	6174	-0.177395
55.9483	6180	-0.17744
55.9993	6186	-0.177124
56.0491	6192	-0.177097
56.0997	6198	-0.177793
56.1508	6204	-0.17773
56.202	6210	-0.177252
56.2513	6216	-0.175869
56.302	6222	-0.176836
56.3541	6228	-0.17784
56.4038	6234	-0.175319
56.4537	6240	-0.177769
56.5051	6246	-0.175826
56.5557	6252	-0.176341
56.606	6258	-0.178231
56.656	6264	-0.177138
56.7075	6270	-0.176804
56.7583	6276	-0.17788
56.8087	6282	-0.177149
56.8586	6288	-0.177104
56.9096	6294	-0.17771
56.9608	6300	-0.177882
57.0102	6306	-0.178235
57.0609	6312	-0.178426
57.1129	6318	-0.177948
57.1628	6324	-0.177398
57.2128	6330	-0.177642
57.2635	6336	-0.179332
57.3154	6342	-0.178312
57.3652	6348	-0.1789
57.4156	6354	-0.179939
57.4658	6360	-0.179642
57.5175	6366	-0.179453
57.568	6372	-0.180167
57.6176	6378	-0.179401
57.6683	6384	-0.17988
57.7197	6390	-0.178843
57.7702	6396	-0.178835
57.8204	6402	-0.180343
57.8717	6408	-0.179577
57.9216	6414	-0.178739
57.9719	6420	-0.179868
58.0227	6426	-0.179228
58.0742	6432	-0.178932
58.1235	6438	-0.180639
58.174	6444	-0.179963
58.2255	6450	-0.179341
58.2772	6456	-0.178179
58.3262	6462	-0.177702
58.3762	6468	-0.178831
58.4278	6474	-0.179184
58.479	6480	-0.179917
58.5284	6486	-0.179945
58.5793	6492	-0.178584
58.6307	6498	-0.17919
58.6811	6504	-0.180229
58.7309	6510	-0.180545
58.7814	6516	-0.179239
58.8335	6522	-0.182659
58.8836	6528	-0.181208
58.9327	6534	-0.181958
58.9846	6540	-0.180905
59.0355	6546	-0.182124
59.0858	6552	-0.180637
59.1359	6558	-0.181297
59.1876	6564	-0.180947
59.2373	6570	-0.181625
59.2877	6576	-0.180842
59.3388	6582	-0.180943
59.3893	6588	-0.182288
59.44	6594	-0.182173
59.4911	6600	-0.182075
59.5413	6606	-0.179887
59.5918	6612	-0.181358
59.6425	6618	-0.181351
59.6918	6624	-0.182893
59.7439	6630	-0.181787
59.7945	6636	-0.18187
59.844	6642	-0.181611
59.8949	6648	-0.181225
59.9464	6654	-0.181488
59.9969	6660	-0.182562
60.0462	6666	-0.182556
60.0979	6672	-0.183395
60.1492	6678	-0.181983
60.1987	6684	-0.181688
60.249	6690	-0.183321
60.3008	6696	-0.182863
60.3508	6702	-0.181631
60.401	6708	-0.18166
60.4514	6714	-0.182716
60.5033	6720	-0.183358
60.5536	6726	-0.18364
60.6034	6732	-0.183597
60.6541	6738	-0.184058
60.7054	6744	-0.183025
60.7559	6750	-0.183649
60.8055	6756	-0.182904
60.8567	6762	-0.182591
60.9076	6768	-0.182098
60.9578	6774	-0.181425
61.0084	6780	-0.181815
61.0593	6786	-0.184618
61.1103	6792	-0.183351
61.1606	6798	-0.184443
61.2103	6804	-0.184184
61.2618	6810	-0.183728
61.3121	6816	-0.18599
61.3628	6822	-0.184057
61.413	6828	-0.183583
61.4648	6834	-0.184441
61.5154	6840	-0.184074
61.5649	6846	-0.183204
61.6153	6852	-0.182928
61.6667	6858	-0.182939
61.7168	6864	-0.183887
61.7677	6870	-0.183467
61.8183	6876	-0.183479
61.8693	6882	-0.182843
61.9189	6888	-0.184205
61.9697	6894	-0.183749
62.0222	6900	-0.184049
62.0715	6906	-0.18532
62.1206	6912	-0.183353
62.1726	6918	-0.183311
62.2238	6924	-0.183233
62.2734	6930	-0.18571
62.3242	6936	-0.184553
62.375	6942	-0.184511
62.4254	6948	-0.184541
62.4756	6954	-0.183402
62.5263	6960	-0.186203
62.5779	6966	-0.186575
62.6277	6972	-0.185669
62.6781	6978	-0.18462
62.729	6984	-0.183752
62.7801	6990	-0.186192
62.8306	6996	-0.185863
62.8798	7002	-0.185965
62.9311	7008	-0.18488
62.9824	7014	-0.184137
63.0321	7020	-0.185373
63.0827	7026	-0.185367
63.1344	7032	-0.185973
63.1846	7038	-0.186381
63.2348	7044	-0.186879
63.286	7050	-0.186047
63.3367	7056	-0.187965
63.387	7062	-0.187295
63.4369	7068	-0.185923
63.4878	7074	-0.186853
63.5391	7080	-0.187387
63.5895	7086	-0.187183
63.6394	7092	-0.186999
63.6902	7098	-0.185789
63.7418	7104	-0.186683
63.7915	7110	-0.186803
63.8421	7116	-0.187301
63.8935	7122	-0.186667
63.9441	7128	-0.18677
63.9931	7134	-0.1866391
64.045	7140	-0.187497
64.0954	7146	-0.187366
64.1462	7152	-0.185438
64.1961	7158	-0.186637
64.2469	7164	-0.186471
64.2986	7170	-0.187472
64.3485	7176	-0.187252
64.3982	7182	-0.189637
64.4491	7188	-0.188482
64.5007	7194	-0.188657
64.5504	7200	-0.18752