File: rawdata/empty_4
empty
Furnace temperature 	Time	HeatFlow
/°C	/s	/mW
7.69487	0	0.0572434
7.39451	6	0.0614703
6.86983	12	0.0637068
6.39865	18	0.0663508
6.04626	24	0.0725964
5.77898	30	0.0801042
5.57802	36	0.0913159
5.42293	42	0.110322
5.30051	48	0.140562
5.20489	54	0.178898
5.13288	60	0.227481
5.07637	66	0.286244
5.03483	72	0.348362
5.00629	78	0.415864
4.98884	84	0.483478
4.97964	90	0.549697
4.97731	96	0.611652
4.98255	102	0.668065
4.99248	108	0.719062
5.00767	114	0.762106
5.02757	120	0.797102
5.05098	126	0.824786
5.07781	132	0.844433
5.10757	138	0.856275
5.13977	144	0.86137
5.17421	150	0.859461
5.21077	156	0.851997
5.24911	162	0.839666
5.16678	168	0.823205
5.11975	174	0.801948
5.10577	180	0.777437
5.11084	186	0.749839
5.12905	192	0.719197
5.15547	198	0.687555
5.18856	204	0.654572
5.2277	210	0.620997
5.2714	216	0.586285
5.31757	222	0.551952
5.36791	228	0.517514
5.42052	234	0.484347
5.4745	240	0.451477
5.52917	246	0.417974
5.58567	252	0.385478
5.64411	258	0.355905
5.70183	264	0.325962
5.7619	270	0.296698
5.82199	276	0.269042
5.88146	282	0.242286
5.94186	288	0.21752
6.00205	294	0.194077
6.06207	300	0.171208
6.1229	306	0.150043
6.18447	312	0.129754
6.24511	318	0.110845
6.30434	324	0.09379971
6.36377	330	0.07730478
6.42415	336	0.06140079
6.48343	342	0.0465714
6.54261	348	0.0329971
6.60179	354	0.0207176
6.66074	360	0.009430054
6.71879	366	-0.000846132
6.77691	372	-0.011179
6.83582	378	-0.0201791
6.89226	384	-0.029498
6.95146	390	-0.0370622
7.01004	396	-0.04430164
7.06783	402	-0.0510758
7.1206	408	-0.0576866
7.17917	414	-0.0634703
7.23553	420	-0.0692118
7.29158	426	-0.0745693
7.34912	432	-0.0787586
7.40455	438	-0.08306706
7.45968	444	-0.0875755
7.51445	450	-0.0902936
7.56851	456	-0.0938947
7.6235	462	-0.0962693
7.67849	468	-0.0987841
7.73249	474	-0.10178
7.78639	480	-0.102545
7.84066	486	-0.104255
7.89538	492	-0.106706
7.94827	498	-0.10731
8.00169	504	-0.109299
8.05554	510	-0.109782
8.10937	516	-0.110506
8.16196	522	-0.111009
8.21497	528	-0.112174
8.26833	534	-0.112155
8.32153	540	-0.111776
8.37356	546	-0.112439
8.42623	552	-0.11226
8.47937	558	-0.112542
8.53132	564	-0.112703
8.58306	570	-0.111563
8.63577	576	-0.111825
8.68852	582	-0.111547
8.74002	588	-0.111348
8.79172	594	-0.11141
8.84446	600	-0.110171
8.89634	606	-0.110273
8.94789	612	-0.109475
8.99961	618	-0.109177
9.05172	624	-0.108739
9.10322	630	-0.108581
9.15449	636	-0.107144
9.20643	642	-0.107927
9.25859	648	-0.107289
9.30957	654	-0.106992
9.36061	660	-0.105776
9.4121	666	-0.105579
9.46435	672	-0.104444
9.51528	678	-0.104407
9.56654	684	-0.10439
9.61814	690	-0.103195
9.66955	696	-0.103338
9.72031	702	-0.103521
9.7715	708	-0.102188
9.8237	714	-0.101573
9.87456	720	-0.101816
9.92516	726	-0.100922
9.97635	732	-0.101026
10.0282	738	-0.100252
10.079	744	-0.0992188
10.1295	750	-0.0984457
10.1811	756	-0.0987091
10.2324	762	-0.0989323
10.2826	768	-0.0983388
10.3335	774	-0.0988411
10.3852	780	-0.0987257
10.4362	786	-0.0975351
10.4862	792	-0.0967631
10.5377	798	-0.0972655
10.589	804	-0.0971503
10.6398	810	-0.0966572
10.69	816	-0.0963634
10.7414	822	-0.0959702
10.7926	828	-0.09687
10.8429	834	-0.09643697
10.8938	840	-0.0960043
10.9456	846	-0.0963072
10.9959	852	-0.0958546
11.0465	858	-0.0958992
11.0976	864	-0.0952085
11.1491	870	-0.0953523
11.1995	876	-0.0948009
11.2498	882	-0.0954019
11.3013	888	-0.0954466
11.3524	894	-0.0949549
11.4025	900	-0.0949598
11.4528	906	-0.0950245
11.5046	912	-0.0950691
11.5553	918	-0.0945183
11.6056	924	-0.0945631
11.6567	930	-0.0940129
11.7079	936	-0.09449394
11.7579	942	-0.0944791
11.8087	948	-0.0944049
11.8601	954	-0.0939739
11.9111	960	-0.0948313
11.9612	966	-0.0935282
12.012	972	-0.0933951
12.0632	978	-0.0937966
12.1139	984	-0.0934451
12.1637	990	-0.0935296
12.2149	996	-0.09300036
12.2662	1002	-0.0931641
12.3167	1008	-0.0930307
12.3672	1014	-0.0927393
12.4181	1020	-0.0934969
12.4693	1026	-0.09375941
12.5193	1032	-0.0930919
12.57	1038	-0.0932755
12.6216	1044	-0.0929644
12.6719	1050	-0.0928313
12.7222	1056	-0.0932916
12.773	1062	-0.0935938
12.8241	1068	-0.0936978
12.8744	1074	-0.0935647
12.9251	1080	-0.0927995
12.9763	1086	-0.0930224
13.027	1092	-0.0935612
13.0769	1098	-0.0931123
13.1279	1104	-0.0935524
13.1792	1110	-0.0930838
13.2295	1116	-0.0934841
13.2801	1122	-0.0931935
13.3311	1128	-0.0940872
13.3819	1134	-0.0929478
13.4319	1140	-0.0929534
13.4826	1146	-0.0930182
13.5342	1152	-0.0918009
13.5845	1158	-0.0936011
13.6345	1164	-0.0931532
13.6857	1170	-0.0932771
13.7372	1176	-0.093598
13.7869	1182	-0.0937216
13.8373	1188	-0.0936485
13.8885	1194	-0.0930235
13.9394	1200	-0.0937973
13.9897	1206	-0.09299507
14.0402	1212	-0.0934144
14.0916	1218	-0.0937155
14.142	1224	-0.0942918
14.1924	1230	-0.0935491
14.2431	1236	-0.0930628
14.2942	1242	-0.0935604
14.3446	1248	-0.0939791
14.3948	1254	-0.0935518
14.4459	1260	-0.0936166
14.4968	1266	-0.0935434
14.5469	1272	-0.0941191
14.5973	1278	-0.0934169
14.6487	1284	-0.0941108
14.6994	1290	-0.0939982
14.7496	1296	-0.0936892
14.8002	1302	-0.0944811
14.8516	1308	-0.0948402
14.902	1314	-0.0949242
14.9517	1320	-0.0947921
15.0025	1326	-0.0950334
15.0542	1332	-0.09472461
15.1044	1338	-0.0941803
15.1547	1344	-0.0940486
15.2058	1350	-0.0946823
15.2571	1356	-0.0941578
15.3068	1362	-0.0948699
15.3573	1368	-0.0945616
15.4085	1374	-0.0950968
15.4594	1380	-0.0944941
15.5092	1386	-0.0944998
15.5601	1392	-0.0957016
15.6114	1398	-0.09402106
15.6617	1404	-0.09484975
15.7117	1410	-0.0945419
15.7629	1416	-0.0948808
15.8138	1422	-0.09514083
15.8641	1428	-0.0952443
15.9147	1434	-0.0954264
15.966	1440	-0.0953927
16.0171	1446	-0.0950064
16.0662	1452	-0.0954429
16.1172	1458	-0.0954682
16.1689	1464	-0.0952582
16.2191	1470	-0.0958703
16.2691	1476	-0.0949565
16.3202	1482	-0.0960969
16.3715	1488	-0.0957891
16.4214	1494	-0.095599
16.4715	1500	-0.0954288
16.5231	1506	-0.0951998
16.574	1512	-0.09581124
16.6238	1518	-0.0964227
16.6741	1524	-0.0956858
16.7258	1530	-0.0961212
16.7766	1536	-0.0962829
16.8259	1542	-0.0965035
16.8765	1548	-0.0965676
16.9282	1554	-0.0958894
16.9786	1560	-0.0968518
17.0284	1566	-0.09601786
17.0794	1572	-0.0964726
17.1307	1578	-0.0961657
17.1809	1584	-0.0969128
17.2311	1590	-0.096255
17.2824	1596	-0.09641663
17.3332	1602	-0.0969682
17.383	1608	-0.0973054
17.4337	1614	-0.097389
17.485	1620	-0.0973164
17.5357	1626	-0.0966588
17.5857	1632	-0.0971714
17.6359	1638	-0.0969626
17.6875	1644	-0.0970654
17.7378	1650	-0.0971295
17.7878	1656	-0.097817
17.839	1662	-0.0975302
17.8905	1668	-0.0973797
17.9402	1674	-0.0974438
17.9907	1680	-0.0980531
18.0418	1686	-0.0973575
18.0929	1692	-0.096779
18.1424	1698	-0.0976412
18.1929	1704	-0.0966348
18.2441	1710	-0.0974964
18.2952	1716	-0.0973854
18.3453	1722	-0.0981498
18.3958	1728	-0.09798
18.4468	1734	-0.0981799
18.4976	1740	-0.0980105
18.5471	1746	-0.0982106
18.5984	1752	-0.09798269
18.6499	1758	-0.09820199
18.6999	1764	-0.0973915
18.7501	1770	-0.099107
18.8017	1776	-0.09843228
18.8523	1782	-0.0981465
18.902	1788	-0.0980745
18.9526	1794	-0.0977499
19.0039	1800	-0.098202
19.0545	1806	-0.0984795
19.1043	1812	-0.0989315
19.1556	1818	-0.0989951
19.2065	1824	-0.0970795
19.2566	1830	-0.0981137
19.3068	1836	-0.0987014
19.3581	1842	-0.09791138
19.4089	1848	-0.0979949
19.4592	1854	-0.098718
19.5096	1860	-0.0988593
19.5611	1866	-0.0989036
19.6113	1872	-0.0993938
19.6614	1878	-0.0990118
19.7118	1884	-0.0988816
19.7634	1890	-0.0992164
19.8137	1896	-0.0992222
19.864	1902	-0.0996927
19.915	1908	-0.100105
19.9656	1914	-0.0991033
20.0161	1920	-0.0999415
20.0661	1926	-0.09969537
20.1177	1932	-0.100707
20.1683	1938	-0.100461
20.218	1944	-0.0998669
20.2695	1950	-0.100182
20.3204	1956	-0.100361
20.3705	1962	-0.100696
20.4209	1968	-0.100875
20.4722	1974	-0.101345
20.5228	1980	-0.100229
20.5727	1986	-0.100892
20.623	1992	-0.100201
20.6742	1998	-0.100303
20.7256	2004	-0.100232
20.7751	2010	-0.100894
20.8257	2016	-0.101692
20.8774	2022	-0.101581
20.9275	2028	-0.100891
20.9777	2034	-0.102172
21.0289	2040	-0.101211
21.08	2046	-0.101371
21.13	2052	-0.101473
21.1799	2058	-0.102849
21.2315	2064	-0.101947
21.2821	2070	-0.102898
21.3323	2076	-0.102151
21.3825	2082	-0.103256
21.4342	2088	-0.102798
21.4843	2094	-0.103556
21.5343	2100	-0.103426
21.5852	2106	-0.1032
21.6367	2112	-0.102666
21.6866	2118	-0.103249
21.7369	2124	-0.104257
21.788	2130	-0.10378
21.839	2136	-0.103535
21.8891	2142	-0.104369
21.9392	2148	-0.103373
21.9905	2154	-0.103821
22.0415	2160	-0.104577
22.0915	2166	-0.103889
22.1422	2172	-0.104588
22.1931	2178	-0.104112
22.2437	2184	-0.105502
22.2935	2190	-0.104969
22.3447	2196	-0.105513
22.396	2202	-0.105402
22.4458	2208	-0.104388
22.496	2214	-0.105509
22.5475	2220	-0.105418
22.5983	2226	-0.106365
22.6482	2232	-0.106371
22.6988	2238	-0.105876
22.75	2244	-0.106592
22.8012	2250	-0.106386
22.8507	2256	-0.105795
22.9009	2262	-0.106531
22.9526	2268	-0.107227
23.0034	2274	-0.105696
23.0528	2280	-0.106392
23.1041	2286	-0.106647
23.1551	2292	-0.106844
23.2055	2298	-0.106638
23.2557	2304	-0.106202
23.3065	2310	-0.106034
23.3576	2316	-0.106922
23.408	2322	-0.107426
23.4583	2328	-0.1077
23.5092	2334	-0.106727
23.5599	2340	-0.108247
23.6101	2346	-0.108712
23.6613	2352	-0.108717
23.7123	2358	-0.108645
23.7619	2364	-0.107846
23.8124	2370	-0.108368
23.8637	2376	-0.107338
23.9153	2382	-0.108819
23.9642	2388	-0.108996
24.0148	2394	-0.108561
24.0665	2400	-0.108527
24.1169	2406	-0.108437
24.1665	2412	-0.109036
24.2177	2418	-0.108964
24.269	2424	-0.108146
24.319	2430	-0.109835
24.369	2436	-0.109419
24.4201	2442	-0.109041
24.4715	2448	-0.1092
24.5212	2454	-0.10997
24.5714	2460	-0.110281
24.6229	2466	-0.110362
24.6742	2472	-0.109947
24.7235	2478	-0.110315
24.7741	2484	-0.110052
24.8256	2490	-0.110248
24.8763	2496	-0.110961
24.9257	2502	-0.111501
24.9766	2508	-0.110646
25.0279	2514	-0.110479
25.0781	2520	-0.110904
25.1281	2526	-0.110737
25.1797	2532	-0.110971
25.2306	2538	-0.111053
25.2807	2544	-0.111993
25.3311	2550	-0.111425
25.3821	2556	-0.111392
25.433	2562	-0.11134
25.4829	2568	-0.111288
25.5334	2574	-0.111731
25.5849	2580	-0.112004
25.6352	2586	-0.111703
25.6852	2592	-0.111804
25.7363	2598	-0.112743
25.7877	2604	-0.112576
25.8374	2610	-0.112257
25.8877	2616	-0.112567
25.9389	2622	-0.113392
25.9896	2628	-0.111872
26.0395	2634	-0.112982
26.0899	2640	-0.113006
26.1418	2646	-0.113506
26.1924	2652	-0.113988
26.242	2658	-0.114507
26.2924	2664	-0.113883
26.3442	2670	-0.113393
26.3947	2676	-0.115454
26.4441	2682	-0.114792
26.4956	2688	-0.114683
26.5468	2694	-0.113926
26.5966	2700	-0.115016
26.6468	2706	-0.115097
26.6981	2712	-0.115216
26.7491	2718	-0.11524
26.7985	2724	-0.115834
26.8497	2730	-0.115439
26.9007	2736	-0.115768
26.9511	2742	-0.115563
27.0013	2748	-0.115169
27.0522	2754	-0.115649
27.103	2760	-0.116433
27.1533	2766	-0.116856
27.2038	2772	-0.116993
27.2552	2778	-0.114661
27.306	2784	-0.115939
27.356	2790	-0.116722
27.4059	2796	-0.116252
27.4574	2802	-0.117321
27.5082	2808	-0.116566
27.5578	2814	-0.116874
27.6088	2820	-0.116822
27.6601	2826	-0.117966
27.7103	2832	-0.117477
27.7601	2838	-0.118222
27.8118	2844	-0.116519
27.8624	2850	-0.116808
27.9122	2856	-0.118369
27.9627	2862	-0.118032
28.0144	2868	-0.117771
28.0653	2874	-0.117681
28.1146	2880	-0.117705
28.1654	2886	-0.118373
28.2171	2892	-0.118226
28.2672	2898	-0.1188
28.317	2904	-0.11778
28.3683	2910	-0.117918
28.4196	2916	-0.118833
28.4693	2922	-0.118705
28.519	2928	-0.118501
28.5714	2934	-0.119548
28.622	2940	-0.11923
28.6716	2946	-0.119992
28.7219	2952	-0.118596
28.7736	2958	-0.119453
28.8246	2964	-0.120006
28.8744	2970	-0.119311
28.9248	2976	-0.120281
28.976	2982	-0.120475
29.0266	2988	-0.119155
29.0764	2994	-0.121203
29.1273	3000	-0.120924
29.1785	3006	-0.121023
29.2287	3012	-0.121841
29.2786	3018	-0.120824
29.3302	3024	-0.121963
29.3813	3030	-0.122138
29.4304	3036	-0.121613
29.4812	3042	-0.121202
29.5331	3048	-0.121774
29.5831	3054	-0.122458
29.633	3060	-0.122217
29.6837	3066	-0.121712
29.7355	3072	-0.123511
29.7858	3078	-0.122382
29.8352	3084	-0.123558
29.8867	3090	-0.122958
29.9377	3096	-0.12334
29.9877	3102	-0.123552
30.0382	3108	-0.123991
30.089	3114	-0.124053
30.1401	3120	-0.123981
30.19	3126	-0.123174
30.2409	3132	-0.123707
30.292	3138	-0.123184
30.3419	3144	-0.124207
30.3921	3150	-0.125079
30.4434	3156	-0.124348
30.4943	3162	-0.124749
30.5445	3168	-0.124885
30.5946	3174	-0.124852
30.6456	3180	-0.125516
30.697	3186	-0.125389
30.7469	3192	-0.125016
30.7973	3198	-0.126378
30.8487	3204	-0.125761
30.8991	3210	-0.125972
30.949	3216	-0.12609
31.0002	3222	-0.125341
31.051	3228	-0.125816
31.1012	3234	-0.126913
31.1512	3240	-0.125128
31.2026	3246	-0.125529
31.2538	3252	-0.126267
31.3037	3258	-0.125443
31.3541	3264	-0.12573
31.4054	3270	-0.126112
31.4561	3276	-0.126756
31.5058	3282	-0.127475
31.5563	3288	-0.127198
31.6075	3294	-0.128086
31.6584	3300	-0.127188
31.7085	3306	-0.127738
31.7591	3312	-0.127667
31.81	3318	-0.127258
31.8609	3324	-0.127902
31.9105	3330	-0.128996
31.9615	3336	-0.128418
32.0128	3342	-0.127765
32.063	3348	-0.126811
32.1128	3354	-0.12753
32.1642	3360	-0.127797
32.215	3366	-0.128009
32.2649	3372	-0.128332
32.3155	3378	-0.128375
32.3669	3384	-0.130051
32.4174	3390	-0.129379
32.4674	3396	-0.1279
32.5182	3402	-0.129219
32.5689	3408	-0.128811
32.6192	3414	-0.129829
32.6697	3420	-0.129101
32.7207	3426	-0.128975
32.7718	3432	-0.128641
32.8217	3438	-0.127689
32.8726	3444	-0.129551
32.9234	3450	-0.129781
32.9741	3456	-0.130535
33.0238	3462	-0.130409
33.0752	3468	-0.130338
33.126	3474	-0.130662
33.1764	3480	-0.131003
33.2265	3486	-0.130877
33.2773	3492	-0.13165
33.3282	3498	-0.131205
33.3783	3504	-0.131172
33.4288	3510	-0.131251
33.4802	3516	-0.132005
33.5308	3522	-0.132122
33.5807	3528	-0.131283
33.6313	3534	-0.131869
33.6831	3540	-0.131855
33.7332	3546	-0.133114
33.7827	3552	-0.133362
33.8344	3558	-0.133048
33.8857	3564	-0.134063
33.935	3570	-0.133599
33.9853	3576	-0.132631
34.0368	3582	-0.133945
34.0876	3588	-0.133688
34.1377	3594	-0.132476
34.1878	3600	-0.133248
34.2395	3606	-0.132841
34.2898	3612	-0.133556
34.3395	3618	-0.133822
34.3904	3624	-0.134238
34.4421	3630	-0.133252
34.4919	3636	-0.133855
34.5419	3642	-0.133841
34.593	3648	-0.135079
34.6442	3654	-0.135308
34.6942	3660	-0.133555
34.7444	3666	-0.134382
34.7965	3672	-0.135788
34.8465	3678	-0.135101
34.8963	3684	-0.135293
34.9475	3690	-0.134812
34.9988	3696	-0.135096
35.0492	3702	-0.135698
35.0986	3708	-0.135049
35.1499	3714	-0.135633
35.2013	3720	-0.135227
35.2511	3726	-0.134709
35.3009	3732	-0.135441
35.3523	3738	-0.136398
35.4032	3744	-0.135432
35.4529	3750	-0.136015
35.5039	3756	-0.137232
35.5554	3762	-0.136435
35.6053	3768	-0.138771
35.6552	3774	-0.136295
35.707	3780	-0.136878
35.758	3786	-0.136975
35.8073	3792	-0.138397
35.8577	3798	-0.13773
35.9095	3804	-0.138201
35.9598	3810	-0.138504
36.0096	3816	-0.138154
36.0609	3822	-0.138271
36.1121	3828	-0.137884
36.1618	3834	-0.137963
36.2121	3840	-0.1378
36.2634	3846	-0.138233
36.3142	3852	-0.138722
36.3641	3858	-0.138261
36.4145	3864	-0.138936
36.4665	3870	-0.139201
36.5165	3876	-0.139504
36.5661	3882	-0.138708
36.6176	3888	-0.139085
36.6684	3894	-0.139964
36.7185	3900	-0.139931
36.769	3906	-0.13962
36.8205	3912	-0.13968
36.8712	3918	-0.139759
36.9207	3924	-0.140396
36.9713	3930	-0.140215
37.0227	3936	-0.139308
37.0737	3942	-0.139834
37.1234	3948	-0.139504
37.174	3954	-0.140364
37.2256	3960	-0.14022
37.2759	3966	-0.141359
37.3254	3972	-0.140545
37.377	3978	-0.140829
37.4274	3984	-0.141391
37.4778	3990	-0.14147
37.5281	3996	-0.140973
37.5793	4002	-0.141573
37.6298	4008	-0.142265
37.6802	4014	-0.14121
37.7306	4020	-0.140714
37.7818	4026	-0.142223
37.8321	4032	-0.142877
37.8823	4038	-0.142009
37.9342	4044	-0.141792
37.9844	4050	-0.142427
38.0336	4056	-0.142469
38.0845	4062	-0.141676
38.1362	4068	-0.143333
38.1873	4074	-0.143616
38.2366	4080	-0.142674
38.2869	4086	-0.143347
38.339	4092	-0.143389
38.3892	4098	-0.142948
38.439	4104	-0.14299
38.4899	4110	-0.143385
38.5408	4116	-0.144057
38.5917	4122	-0.143895
38.6411	4128	-0.142194
38.6925	4134	-0.144572
38.7437	4140	-0.14415
38.7935	4146	-0.143562
38.8434	4152	-0.143697
38.8946	4158	-0.142942
38.9455	4164	-0.143725
38.9957	4170	-0.143118
39.0465	4176	-0.14392
39.0977	4182	-0.143295
39.1475	4188	-0.143856
39.1979	4194	-0.144287
39.2498	4200	-0.146755
39.3	4206	-0.145741
39.3496	4212	-0.14532
39.4004	4218	-0.14551
39.4515	4224	-0.146404
39.5026	4230	-0.146076
39.5527	4236	-0.146432
39.6028	4242	-0.145863
39.6546	4248	-0.146405
39.705	4254	-0.146225
39.7544	4260	-0.146692
39.8052	4266	-0.146216
39.8574	4272	-0.146314
39.9073	4278	-0.14569
39.9569	4284	-0.145362
40.0079	4290	-0.145848
40.0592	4296	-0.146334
40.1087	4302	-0.14743
40.1589	4308	-0.147195
40.2108	4314	-0.146793
40.2616	4320	-0.146243
40.3111	4326	-0.147912
40.3618	4332	-0.147621
40.4133	4338	-0.147201
40.4641	4344	-0.147668
40.5132	4350	-0.147008
40.5645	4356	-0.147789
40.6156	4362	-0.146944
40.6661	4368	-0.147837
40.7157	4374	-0.149541
40.7675	4380	-0.147625
40.8181	4386	-0.147002
40.8677	4392	-0.147359
40.9184	4398	-0.148305
40.9701	4404	-0.148643
41.0203	4410	-0.148094
41.0699	4416	-0.147952
41.1213	4422	-0.149231
41.1727	4428	-0.148442
41.2226	4434	-0.148318
41.2725	4440	-0.14801
41.3239	4446	-0.1482
41.3746	4452	-0.148352
41.4247	4458	-0.149004
41.4756	4464	-0.149323
41.5268	4470	-0.149512
41.577	4476	-0.148706
41.6269	4482	-0.149855
41.678	4488	-0.151059
41.729	4494	-0.149146
41.7792	4500	-0.149834
41.8292	4506	-0.150337
41.8803	4512	-0.149439
41.9316	4518	-0.149592
41.9813	4524	-0.150869
42.0318	4530	-0.150819
42.0835	4536	-0.150271
42.1338	4542	-0.151069
42.1831	4548	-0.151738
42.2348	4554	-0.151835
42.2856	4560	-0.151785
42.3359	4566	-0.151459
42.3863	4572	-0.152183
42.4373	4578	-0.151783
42.4881	4584	-0.152101
42.5381	4590	-0.151205
42.5887	4596	-0.152352
42.6401	4602	-0.151473
42.6901	4608	-0.15181
42.7402	4614	-0.151834
42.7915	4620	-0.15241
42.8427	4626	-0.151734
42.8923	4632	-0.151832
42.9428	4638	-0.151782
42.9943	4644	-0.152377
43.0449	4650	-0.152511
43.0944	4656	-0.15259
43.1455	4662	-0.15289
43.1964	4668	-0.153245
43.2471	4674	-0.152386
43.2969	4680	-0.153275
43.3479	4686	-0.153207
43.3992	4692	-0.153745
43.449	4698	-0.153346
43.4992	4704	-0.153444
43.5506	4710	-0.154773
43.6015	4716	-0.154209
43.6515	4722	-0.154067
43.7023	4728	-0.155158
43.7531	4734	-0.154869
43.8034	4740	-0.154507
43.8536	4746	-0.153153
43.9052	4752	-0.154298
43.9557	4758	-0.154616
44.0057	4764	-0.153593
44.0561	4770	-0.153618
44.1074	4776	-0.154376
44.158	4782	-0.153867
44.2079	4788	-0.15459
44.259	4794	-0.15421
44.3099	4800	-0.155611
44.3603	4806	-0.154074
44.4106	4812	-0.15375
44.4614	4818	-0.153867
44.5124	4824	-0.154845
44.5622	4830	-0.154851
44.6124	4836	-0.154306
44.6644	4842	-0.156
44.7146	4848	-0.155841
44.7646	4854	-0.155388
44.8157	4860	-0.156128
44.867	4866	-0.155364
44.9168	4872	-0.156085
44.9668	4878	-0.155706
45.0183	4884	-0.156941
45.0694	4890	-0.156836
45.1182	4896	-0.15554
45.1691	4902	-0.156885
45.2208	4908	-0.157404
45.2716	4914	-0.157483
45.3215	4920	-0.156665
45.3718	4926	-0.156671
45.4227	4932	-0.15664
45.4735	4938	-0.156683
45.5236	4944	-0.157807
45.575	4950	-0.157501
45.6254	4956	-0.15791
45.6754	4962	-0.156964
45.7265	4968	-0.158014
45.7775	4974	-0.15824
45.8271	4980	-0.158283
45.8776	4986	-0.158912
45.9296	4992	-0.158643
45.9801	4998	-0.157898
46.0295	5004	-0.159021
46.0806	5010	-0.157709
46.1313	5016	-0.158082
46.182	5022	-0.158967
46.2323	5028	-0.158808
46.2835	5034	-0.159437
46.3341	5040	-0.15904
46.3842	5046	-0.159907
46.4347	5052	-0.158449
46.4857	5058	-0.158821
46.5365	5064	-0.160035
46.5863	5070	-0.158962
46.6368	5076	-0.159664
46.6885	5082	-0.157841
46.7392	5088	-0.158762
46.789	5094	-0.158713
46.8396	5100	-0.160037
46.8909	5106	-0.159513
46.9409	5112	-0.159628
46.9911	5118	-0.158099
47.0427	5124	-0.159532
47.0932	5130	-0.15888
47.1432	5136	-0.159984
47.1929	5142	-0.159131
47.2449	5148	-0.16177
47.2957	5154	-0.161538
47.3452	5160	-0.160795
47.3962	5166	-0.160437
47.4472	5172	-0.161704
47.497	5178	-0.16224
47.5476	5184	-0.162484
47.5993	5190	-0.162418
47.6501	5196	-0.161255
47.6998	5202	-0.161992
47.7504	5208	-0.161469
47.801	5214	-0.162718
47.8518	5220	-0.16214
47.9024	5226	-0.162201
47.9528	5232	-0.161259
48.0039	5238	-0.16174
48.0546	5244	-0.162623
48.1044	5250	-0.162319
48.1549	5256	-0.161742
48.2069	5262	-0.161749
48.257	5268	-0.161828
48.307	5274	-0.161069
48.3579	5280	-0.159726
48.4088	5286	-0.162031
48.4591	5292	-0.161236
48.5087	5298	-0.161863
48.5602	5304	-0.162727
48.6117	5310	-0.162223
48.6615	5316	-0.162358
48.7118	5322	-0.161927
48.7629	5328	-0.161588
48.8136	5334	-0.162452
48.8632	5340	-0.162586
48.9144	5346	-0.162812
48.9654	5352	-0.162236
49.0152	5358	-0.162498
49.0658	5364	-0.162998
49.1176	5370	-0.163242
49.1677	5376	-0.162319
49.2174	5382	-0.16331
49.2683	5388	-0.162753
49.3207	5394	-0.1644
49.3702	5400	-0.16417
49.4194	5406	-0.164742
49.4713	5412	-0.164494
49.5223	5418	-0.164811
49.5721	5424	-0.164235
49.6219	5430	-0.164898
49.6739	5436	-0.16394
49.7248	5442	-0.164093
49.7738	5448	-0.16308
49.8243	5454	-0.164435
49.8765	5460	-0.165553
49.9272	5466	-0.164249
49.9771	5472	-0.163838
50.027	5478	-0.163936
50.0786	5484	-0.165072
50.1294	5490	-0.164515
50.1786	5496	-0.164905
50.2297	5502	-0.165532
50.2814	5508	-0.166685
50.3317	5514	-0.165946
50.3815	5520	-0.165499
50.4327	5526	-0.165925
50.4837	5532	-0.164786
50.5332	5538	-0.164193
50.5835	5544	-0.166439
50.6353	5550	-0.166737
50.686	5556	-0.165889
50.7356	5562	-0.166916
50.7865	5568	-0.167087
50.8373	5574	-0.166221
50.8882	5580	-0.166793
50.938	5586	-0.166637
50.9886	5592	-0.167645
51.04	5598	-0.166707
51.0906	5604	-0.16826
51.1408	5610	-0.167195
51.1912	5616	-0.16693
51.2426	5622	-0.166683
51.2929	5628	-0.166654
51.3431	5634	-0.167244
51.3937	5640	-0.16736
51.4446	5646	-0.167949
51.4952	5652	-0.166831
51.5456	5658	-0.168092
51.5968	5664	-0.168918
51.6471	5670	-0.167036
51.6968	5676	-0.167843
51.7478	5682	-0.168378
51.7994	5688	-0.167441
51.8491	5694	-0.166977
51.8993	5700	-0.167711
51.9505	5706	-0.167828
52.0019	5712	-0.168454
52.0522	5718	-0.169333
52.102	5724	-0.168833
52.153	5730	-0.167388
52.204	5736	-0.168867
52.2538	5742	-0.169075
52.3041	5748	-0.168883
52.3557	5754	-0.168782
52.4061	5760	-0.167792
52.4567	5766	-0.167201
52.5072	5772	-0.168207
52.5585	5778	-0.168524
52.6084	5784	-0.170039
52.6585	5790	-0.169593
52.7097	5796	-0.168168
52.761	5802	-0.169337
52.8112	5808	-0.168819
52.8608	5814	-0.169971
52.9121	5820	-0.168364
52.9629	5826	-0.16899
53.0132	5832	-0.169814
53.0636	5838	-0.169278
53.1157	5844	-0.170665
53.1655	5850	-0.171236
53.2148	5856	-0.170482
53.2662	5862	-0.170708
53.3176	5868	-0.170173
53.367	5874	-0.171197
53.4169	5880	-0.171332
53.4688	5886	-0.171503
53.52	5892	-0.171131
53.5702	5898	-0.171357
53.6196	5904	-0.1706222
53.671	5910	-0.170649
53.7223	5916	-0.170585
53.7723	5922	-0.170865
53.8223	5928	-0.170983
53.874	5934	-0.171463
53.9246	5940	-0.171707
53.9743	5946	-0.17244
54.0249	5952	-0.172286
54.0764	5958	-0.172421
54.127	5964	-0.171379
54.1767	5970	-0.171352
54.2278	5976	-0.1729
54.2793	5982	-0.171768
54.3291	5988	-0.173425
54.3782	5994	-0.171206
54.4303	6000	-0.172935
54.4812	6006	-0.172509
54.5313	6012	-0.171631
54.5815	6018	-0.172744
54.6327	6024	-0.172862
54.6836	6030	-0.172798
54.7334	6036	-0.17402
54.7843	6042	-0.173486
54.8359	6048	-0.173187
54.8849	6054	-0.171748
54.9351	6060	-0.173947
54.9872	6066	-0.173015
55.0375	6072	-0.172988
55.0873	6078	-0.174282
55.1388	6084	-0.1742
55.1894	6090	-0.174101
55.2396	6096	-0.173404
55.2893	6102	-0.173413
55.3409	6108	-0.173748
55.3926	6114	-0.172726
55.4426	6120	-0.172753
55.492	6126	-0.172238
55.5435	6132	-0.173839
55.5944	6138	-0.174445
55.6448	6144	-0.175431
55.6945	6150	-0.174355
55.7462	6156	-0.173406
55.797	6162	-0.173668
55.8467	6168	-0.17498
55.897	6174	-0.175043
55.9483	6180	-0.172774
55.9993	6186	-0.174158
56.0491	6192	-0.175578
56.0997	6198	-0.17613
56.1508	6204	-0.176573
56.202	6210	-0.173238
56.2513	6216	-0.173735
56.302	6222	-0.174089
56.3541	6228	-0.174424
56.4038	6234	-0.174813
56.4537	6240	-0.174913
56.5051	6246	-0.174814
56.5557	6252	-0.174769
56.606	6258	-0.176207
56.656	6264	-0.176162
56.7075	6270	-0.176154
56.7583	6276	-0.176181
56.8087	6282	-0.176046
56.8586	6288	-0.176147
56.9096	6294	-0.177313
56.9608	6300	-0.178461
57.0102	6306	-0.176429
57.0609	6312	-0.178028
57.1129	6318	-0.17737
57.1628	6324	-0.177542
57.2128	6330	-0.175854
57.2635	6336	-0.177074
57.3154	6342	-0.174881
57.3652	6348	-0.176841
57.4156	6354	-0.17705
57.4658	6360	-0.175109
57.5175	6366	-0.177413
57.568	6372	-0.178777
57.6176	6378	-0.177234
57.6683	6384	-0.177064
57.7197	6390	-0.176532
57.7702	6396	-0.178077
57.8204	6402	-0.177997
57.8717	6408	-0.176454
57.9216	6414	-0.177385
57.9719	6420	-0.177052
58.0227	6426	-0.178218
58.0742	6432	-0.177289
58.1235	6438	-0.178744
58.174	6444	-0.179133
58.2255	6450	-0.17815
58.2772	6456	-0.177114
58.3262	6462	-0.178117
58.3762	6468	-0.177171
58.4278	6474	-0.177939
58.479	6480	-0.177751
58.5284	6486	-0.179656
58.5793	6492	-0.178728
58.6307	6498	-0.178576
58.6811	6504	-0.177956
58.7309	6510	-0.177479
58.7814	6516	-0.178392
58.8335	6522	-0.179917
58.8836	6528	-0.178936
58.9327	6534	-0.180299
58.9846	6540	-0.180165
59.0355	6546	-0.179455
59.0858	6552	-0.178527
59.1359	6558	-0.178809
59.1876	6564	-0.176547
59.2373	6570	-0.177225
59.2877	6576	-0.178913
59.3388	6582	-0.179267
59.3893	6588	-0.179097
59.44	6594	-0.179054
59.4911	6600	-0.18011
59.5413	6606	-0.178625
59.5918	6612	-0.181304
59.6425	6618	-0.179999
59.6918	6624	-0.179703
59.7439	6630	-0.180795
59.7945	6636	-0.181095
59.844	6642	-0.179124
59.8949	6648	-0.180612
59.9464	6654	-0.179326
59.9969	6660	-0.180022
60.0462	6666	-0.180609
60.0979	6672	-0.180765
60.1492	6678	-0.181064
60.1987	6684	-0.181021
60.249	6690	-0.180618
60.3008	6696	-0.181494
60.3508	6702	-0.180893
60.401	6708	-0.181805
60.4514	6714	-0.181149
60.5033	6720	-0.18107
60.5536	6726	-0.18065
60.6034	6732	-0.181598
60.6541	6738	-0.180096
60.7054	6744	-0.181422
60.7559	6750	-0.181938
60.8055	6756	-0.18321
60.8567	6762	-0.182123
60.9076	6768	-0.181396
60.9578	6774	-0.180201
61.0084	6780	-0.181815
61.0593	6786	-0.181341
61.1103	6792	-0.180704
61.1606	6798	-0.181292
61.2103	6804	-0.181646
61.2618	6810	-0.182125
61.3121	6816	-0.183901
61.3628	6822	-0.182581
61.413	6828	-0.181422
61.4648	6834	-0.181686
61.5154	6840	-0.180816
61.5649	6846	-0.181584
61.6153	6852	-0.182226
61.6667	6858	-0.183191
61.7168	6864	-0.182699
61.7677	6870	-0.181847
61.8183	6876	-0.181013
61.8693	6882	-0.183401
61.9189	6888	-0.183017
61.9697	6894	-0.179376
62.0222	6900	-0.182699
62.0715	6906	-0.182351
62.1206	6912	-0.183875
62.1726	6918	-0.182627
62.2238	6924	-0.183863
62.2734	6930	-0.181896
62.3242	6936	-0.183078
62.375	6942	-0.183665
62.4254	6948	-0.183966
62.4756	6954	-0.183582
62.5263	6960	-0.184799
62.5779	6966	-0.182815
62.6277	6972	-0.183097
62.6781	6978	-0.184171
62.729	6984	-0.181215
62.7801	6990	-0.182361
62.8306	6996	-0.184262
62.8798	7002	-0.184059
62.9311	7008	-0.183909
62.9824	7014	-0.18286
63.0321	7020	-0.184222
63.0827	7026	-0.184504
63.1344	7032	-0.185344
63.1846	7038	-0.18604
63.2348	7044	-0.183247
63.286	7050	-0.184968
63.3367	7056	-0.18534
63.387	7062	-0.184202
63.4369	7068	-0.185995
63.4878	7074	-0.1843
63.5391	7080	-0.185211
63.5895	7086	-0.186285
63.6394	7092	-0.185399
63.6902	7098	-0.186094
63.7418	7104	-0.185927
63.7915	7110	-0.185581
63.8421	7116	-0.184893
63.8935	7122	-0.184726
63.9441	7128	-0.187345
63.9931	7134	-0.185471
64.045	7140	-0.186257
64.0954	7146	-0.185497
64.1462	7152	-0.18666
64.1961	7158	-0.186889
64.2469	7164	-0.186327
64.2986	7170	-0.186106
64.3485	7176	-0.186677
64.3982	7182	-0.186312
64.4491	7188	-0.186829
64.5007	7194	-0.186123
64.5504	7200	-0.186442