File: rawdata/empty_2
empty
Furnace temperature 	Time	HeatFlow
/°C	/s	/mW
7.69487	0	-0.003844623
7.39451	6	-0.00352015
6.86983	12	0.003073002
6.39865	18	0.02564355
6.04626	24	0.06307
5.77898	30	0.115408
5.57802	36	0.177176
5.42293	42	0.246436
5.30051	48	0.317811
5.20489	54	0.388977
5.13288	60	0.459448
5.07637	66	0.525294
5.03483	72	0.585075
5.00629	78	0.639384
4.98884	84	0.685461
4.97964	90	0.724568
4.97731	96	0.755874
4.98255	102	0.779492
4.99248	108	0.796129
5.00767	114	0.805856
5.02757	120	0.809085
5.05098	126	0.806892
5.07781	132	0.799628
5.10757	138	0.788472
5.13977	144	0.772409
5.17421	150	0.754142
5.21077	156	0.732052
5.24911	162	0.708698
5.16678	168	0.68219
5.11975	174	0.654132
5.10577	180	0.626208
5.11084	186	0.596999
5.12905	192	0.566688
5.15547	198	0.5372
5.18856	204	0.50736
5.2277	210	0.478037
5.2714	216	0.449494
5.31757	222	0.42143
5.36791	228	0.393758
5.42052	234	0.367007
5.4745	240	0.340531
5.52917	246	0.31502
5.58567	252	0.290523
5.64411	258	0.267149
5.70183	264	0.245178
5.7619	270	0.223315
5.82199	276	0.202472
5.88146	282	0.182727
5.94186	288	0.164119
6.00205	294	0.146024
6.06207	300	0.129529
6.1229	306	0.113605
6.18447	312	0.0988168
6.24511	318	0.0855669
6.30434	324	0.0723216
6.36377	330	0.0607949
6.42415	336	0.0503008
6.48343	342	0.0391653
6.54261	348	0.0291421
6.60179	354	0.0199485
6.66074	360	0.01239014
6.71879	366	0.003948044
6.77691	372	-0.002618145
6.83582	378	-0.009725728
6.89226	384	-0.0162269
6.95146	390	-0.0224441
7.01004	396	-0.0277534
7.06783	402	-0.0324976
7.1206	408	-0.0382461
7.17917	414	-0.0415586
7.23553	420	-0.0453728
7.29158	426	-0.0496082
7.34912	432	-0.052676
7.40455	438	-0.0561245
7.45968	444	-0.0589489
7.51445	450	-0.0610692
7.56851	456	-0.0637312
7.6235	462	-0.0653275
7.67849	468	-0.06760633
7.73249	474	-0.0691214
7.78639	480	-0.0712983
7.84066	486	-0.0723101
7.89538	492	-0.0735026
7.94827	498	-0.0748953
8.00169	504	-0.0767088
8.05554	510	-0.077077
8.10937	516	-0.0767836
8.16196	522	-0.077513
8.21497	528	-0.0785428
8.26833	534	-0.07903108
8.32153	540	-0.078918
8.37356	546	-0.07976684
8.42623	552	-0.0801943
8.47937	558	-0.0801212
8.53132	564	-0.08042872
8.58306	570	-0.0809163
8.63577	576	-0.0804623
8.68852	582	-0.0806695
8.74002	588	-0.0808567
8.79172	594	-0.0810235
8.84446	600	-0.0804099
8.89634	606	-0.08127743
8.94789	612	-0.0815843
8.99961	618	-0.0807508
9.05172	624	-0.0813977
9.10322	630	-0.0810848
9.15449	636	-0.0812515
9.20643	642	-0.081658
9.25859	648	-0.0812851
9.30957	654	-0.0807126
9.36061	660	-0.08141876
9.4121	666	-0.0806065
9.46435	672	-0.0807734
9.51528	678	-0.0809601
9.56654	684	-0.0799685
9.61814	690	-0.0800955
9.66955	696	-0.0796835
9.72031	702	-0.0805488
9.7715	708	-0.0807352
9.8237	714	-0.0810017
9.87456	720	-0.0810089
9.92516	726	-0.0806367
9.97635	732	-0.08034455
10.0282	738	-0.0805911
10.079	744	-0.0811764
10.1295	750	-0.0802862
10.1811	756	-0.0806919
10.2324	762	-0.0806593
10.2826	768	-0.0801882
10.3335	774	-0.0807131
10.3852	780	-0.0806407
10.4362	786	-0.0810262
10.4862	792	-0.0802964
10.5377	798	-0.0809803
10.589	804	-0.0796938
10.6398	810	-0.0804772
10.69	816	-0.0812404
10.7414	822	-0.0804119
10.7926	828	-0.0794049
10.8429	834	-0.0802871
10.8938	840	-0.0809305
10.9456	846	-0.0814745
10.9959	852	-0.081422
11.0465	858	-0.08061409
11.0976	864	-0.0812173
11.1491	870	-0.0816418
11.1995	876	-0.0822846
11.2498	882	-0.0814968
11.3013	888	-0.0819409
11.3524	894	-0.0814913
11.4025	900	-0.08278881
11.4528	906	-0.0817435
11.5046	912	-0.0819889
11.5553	918	-0.0815791
11.6056	924	-0.0828758
11.6567	930	-0.0825851
11.7079	936	-0.0829096
11.7579	942	-0.0827379
11.8087	948	-0.0830223
11.8601	954	-0.0829104
11.9111	960	-0.0834525
11.9612	966	-0.0831025
12.012	972	-0.0828914
12.0632	978	-0.0832551
12.1139	984	-0.0841337
12.1637	990	-0.0839223
12.2149	996	-0.0836123
12.2662	1002	-0.0832827
12.3167	1008	-0.0836459
12.3672	1014	-0.0838307
12.4181	1020	-0.0838179
12.4693	1026	-0.08428
12.5193	1032	-0.0834161
12.57	1038	-0.0830273
12.6216	1044	-0.0825992
12.6719	1050	-0.08312048
12.7222	1056	-0.08289
12.773	1062	-0.0837274
12.8241	1068	-0.0839123
12.8744	1074	-0.0836424
12.9251	1080	-0.0836097
12.9763	1086	-0.084407
13.027	1092	-0.0850461
13.0769	1098	-0.0852898
13.1279	1104	-0.0853556
13.1792	1110	-0.0855402
13.2295	1116	-0.0861194
13.2801	1122	-0.0855139
13.3311	1128	-0.0852442
13.3819	1134	-0.0862575
13.4319	1140	-0.0862641
13.4826	1146	-0.0859943
13.5342	1152	-0.0858629
13.5845	1158	-0.0864812
13.6345	1164	-0.0862905
13.6857	1170	-0.0868095
13.7372	1176	-0.0866781
13.7869	1182	-0.0875914
13.8373	1188	-0.0872036
13.8885	1194	-0.0869143
13.9394	1200	-0.0867635
13.9897	1206	-0.0871641
14.0402	1212	-0.0883522
14.0916	1218	-0.0882206
14.142	1224	-0.0874396
14.1924	1230	-0.0877413
14.2431	1236	-0.0876492
14.2942	1242	-0.08897429
14.3446	1248	-0.0887446
14.3948	1254	-0.0887704
14.4459	1260	-0.0894062
14.4968	1266	-0.0888618
14.5469	1272	-0.0894384
14.5973	1278	-0.0895821
14.6487	1284	-0.0887232
14.6994	1290	-0.0895752
14.7496	1296	-0.0899547
14.8002	1302	-0.0891157
14.8516	1308	-0.0898098
14.902	1314	-0.0909162
14.9517	1320	-0.0890366
15.0025	1326	-0.090064
15.0542	1332	-0.0906791
15.1044	1338	-0.0914903
15.1547	1344	-0.0911231
15.2058	1350	-0.0902262
15.2571	1356	-0.091155
15.3068	1362	-0.0914554
15.3573	1368	-0.0920105
15.4085	1374	-0.0919183
15.4594	1380	-0.0927092
15.5092	1386	-0.0924209
15.5601	1392	-0.0931128
15.6114	1398	-0.0923541
15.6617	1404	-0.0935559
15.7117	1410	-0.0933069
15.7629	1416	-0.0939591
15.8138	1422	-0.0942392
15.8641	1428	-0.0946956
15.9147	1434	-0.0947402
15.966	1440	-0.0937862
16.0171	1446	-0.0938901
16.0662	1452	-0.0942287
16.1172	1458	-0.0943517
16.1689	1464	-0.0948467
16.2191	1470	-0.0950678
16.2691	1476	-0.0943887
16.3202	1482	-0.0949224
16.3715	1488	-0.0957888
16.4214	1494	-0.0954034
16.4715	1500	-0.0941377
16.5231	1506	-0.0941237
16.574	1512	-0.0951854
16.6238	1518	-0.0951716
16.6741	1524	-0.0957244
16.7258	1530	-0.09471371
16.7766	1536	-0.0945439
16.8259	1542	-0.0950381
16.8765	1548	-0.0943796
16.9282	1554	-0.0951274
16.9786	1560	-0.0959338
17.0284	1566	-0.0949437
17.0794	1572	-0.0955155
17.1307	1578	-0.0948575
17.1809	1584	-0.0956833
17.2311	1590	-0.0954546
17.2824	1596	-0.095343
17.3332	1602	-0.0952904
17.383	1608	-0.0953743
17.4337	1614	-0.0955358
17.485	1620	-0.095366
17.5357	1626	-0.0946507
17.5857	1632	-0.0953583
17.6359	1638	-0.0946038
17.6875	1644	-0.0953113
17.7378	1650	-0.0958044
17.7878	1656	-0.0953619
17.839	1662	-0.0951144
17.8905	1668	-0.0949451
17.9402	1674	-0.0954963
17.9907	1680	-0.0955993
18.0418	1686	-0.0948264
18.0929	1692	-0.0944625
18.1424	1698	-0.0946437
18.1929	1704	-0.0949414
18.2441	1710	-0.0945972
18.2952	1716	-0.0948756
18.3453	1722	-0.0948233
18.3958	1728	-0.0949068
18.4468	1734	-0.0945045
18.4976	1740	-0.0948606
18.5471	1746	-0.0956441
18.5984	1752	-0.0944643
18.6499	1758	-0.0953061
18.6999	1764	-0.0947875
18.7501	1770	-0.0956287
18.8017	1776	-0.0945273
18.8523	1782	-0.09404806
18.902	1788	-0.09477254
18.9526	1794	-0.0947979
19.0039	1800	-0.0942217
19.0545	1806	-0.0949656
19.1043	1812	-0.0944086
19.1556	1818	-0.0948222
19.2065	1824	-0.0956241
19.2566	1830	-0.0959794
19.3068	1836	-0.0947242
19.3581	1842	-0.0955448
19.4089	1848	-0.0948723
19.4592	1854	-0.0952081
19.5096	1860	-0.0948456
19.5611	1866	-0.0946967
19.6113	1872	-0.0953814
19.6614	1878	-0.0949028
19.7118	1884	-0.0948313
19.7634	1890	-0.09532202
19.8137	1896	-0.0947665
19.864	1902	-0.09413331
19.915	1908	-0.094798
19.9656	1914	-0.0949206
20.0161	1920	-0.0950817
20.0661	1926	-0.0949134
20.1177	1932	-0.095694
20.1683	1938	-0.0950616
20.218	1944	-0.0960159
20.2695	1950	-0.0963893
20.3204	1956	-0.0954477
20.3705	1962	-0.096305
20.4209	1968	-0.0950345
20.4722	1974	-0.0968777
20.5228	1980	-0.0964778
20.5727	1986	-0.0966193
20.623	1992	-0.0969345
20.6742	1998	-0.0953556
20.7256	2004	-0.0970045
20.7751	2010	-0.0970878
20.8257	2016	-0.0973256
20.8774	2022	-0.0968101
20.9275	2028	-0.097473
20.9777	2034	-0.0964554
21.0289	2040	-0.0956118
21.08	2046	-0.0965449
21.13	2052	-0.0967056
21.1799	2058	-0.0970203
21.2315	2064	-0.0969877
21.2821	2070	-0.0970519
21.3323	2076	-0.0985628
21.3825	2082	-0.0981056
21.4342	2088	-0.0973978
21.4843	2094	-0.0972692
21.5343	2100	-0.0966584
21.5852	2106	-0.0970307
21.6367	2112	-0.0974801
21.6866	2118	-0.0982768
21.7369	2124	-0.097242
21.788	2130	-0.0979224
21.839	2136	-0.0978708
21.8891	2142	-0.0985319
21.9392	2148	-0.0982297
21.9905	2154	-0.0979852
22.0415	2160	-0.0976255
22.0915	2166	-0.0978051
22.1422	2172	-0.0988121
22.1931	2178	-0.0987796
22.2437	2184	-0.0990167
22.2935	2190	-0.0992342
22.3447	2196	-0.0985282
22.396	2202	-0.0984576
22.4458	2208	-0.09886767
22.496	2214	-0.0992582
22.5475	2220	-0.098764
22.5983	2226	-0.0989628
22.6482	2232	-0.0991419
22.6988	2238	-0.100589
22.75	2244	-0.09953814
22.8012	2250	-0.101082
22.8507	2256	-0.10078
22.9009	2262	-0.100382
22.9526	2268	-0.100465
23.0034	2274	-0.100817
23.0528	2280	-0.100093
23.1041	2286	-0.0998876
23.1551	2292	-0.0998938
23.2055	2298	-0.0994584
23.2557	2304	-0.0997714
23.3065	2310	-0.0992975
23.3576	2316	-0.0996302
23.408	2322	-0.100903
23.4583	2328	-0.100275
23.5092	2334	-0.101125
23.5599	2340	-0.101458
23.6101	2346	-0.101483
23.6613	2352	-0.1019485
23.7123	2358	-0.101533
23.7619	2364	-0.101443
23.8124	2370	-0.100529
23.8637	2376	-0.100688
23.9153	2382	-0.102514
23.9642	2388	-0.100834
24.0148	2394	-0.101147
24.0665	2400	-0.101919
24.1169	2406	-0.101753
24.1665	2412	-0.101816
24.2177	2418	-0.101286
24.269	2424	-0.101483
24.319	2430	-0.101777
24.369	2436	-0.102299
24.4201	2442	-0.101444
24.4715	2448	-0.101603
24.5212	2454	-0.101992
24.5714	2460	-0.102553
24.6229	2466	-0.103343
24.6742	2472	-0.102813
24.7235	2478	-0.103488
24.7741	2484	-0.102634
24.8256	2490	-0.102238
24.8763	2496	-0.102608
24.9257	2502	-0.103053
24.9766	2508	-0.103173
25.0279	2514	-0.103179
25.0781	2520	-0.103434
25.1281	2526	-0.103402
25.1797	2532	-0.102892
25.2306	2538	-0.103738
25.2807	2544	-0.103763
25.3311	2550	-0.103349
25.3821	2556	-0.103412
25.433	2562	-0.103151
25.4829	2568	-0.103367
25.5334	2574	-0.103774
25.5849	2580	-0.103761
25.6352	2586	-0.103938
25.6852	2592	-0.103982
25.7363	2598	-0.103931
25.7877	2604	-0.103785
25.8374	2610	-0.104916
25.8877	2616	-0.104559
25.9389	2622	-0.103669
25.9896	2628	-0.103256
26.0395	2634	-0.104463
26.0899	2640	-0.104507
26.1418	2646	-0.104817
26.1924	2652	-0.104519
26.242	2658	-0.105325
26.2924	2664	-0.106511
26.3442	2670	-0.105698
26.3947	2676	-0.1054
26.4441	2682	-0.105843
26.4956	2688	-0.105488
26.5468	2694	-0.105627
26.5966	2700	-0.106432
26.6468	2706	-0.106723
26.6981	2712	-0.106596
26.7491	2718	-0.106259
26.7985	2724	-0.106437
26.8497	2730	-0.106842
26.9007	2736	-0.106315
26.9511	2742	-0.10731
27.0013	2748	-0.107544
27.0522	2754	-0.106675
27.103	2760	-0.1067
27.1533	2766	-0.107542
27.2038	2772	-0.107111
27.2552	2778	-0.10609
27.306	2784	-0.107047
27.356	2790	-0.106673
27.4059	2796	-0.107172
27.4574	2802	-0.107292
27.5082	2808	-0.107184
27.5578	2814	-0.107399
27.6088	2820	-0.108506
27.6601	2826	-0.107544
27.7103	2832	-0.10791
27.7601	2838	-0.107897
27.8118	2844	-0.107884
27.8624	2850	-0.108364
27.9122	2856	-0.108484
27.9627	2862	-0.108129
28.0144	2868	-0.108989
28.0653	2874	-0.108521
28.1146	2880	-0.108489
28.1654	2886	-0.108001
28.2171	2892	-0.107912
28.2672	2898	-0.109132
28.317	2904	-0.109043
28.3683	2910	-0.108631
28.4196	2916	-0.109433
28.4693	2922	-0.109269
28.519	2928	-0.109881
28.5714	2934	-0.10964
28.622	2940	-0.110082
28.6716	2946	-0.110694
28.7219	2952	-0.109222
28.7736	2958	-0.10972
28.8246	2964	-0.108458
28.8744	2970	-0.109997
28.9248	2976	-0.110533
28.976	2982	-0.109233
29.0266	2988	-0.110602
29.0764	2994	-0.110153
29.1273	3000	-0.110273
29.1785	3006	-0.109881
29.2287	3012	-0.110209
29.2786	3018	-0.110688
29.3302	3024	-0.111034
29.3813	3030	-0.110378
29.4304	3036	-0.110081
29.4812	3042	-0.110824
29.5331	3048	-0.110509
29.5831	3054	-0.110874
29.633	3060	-0.110993
29.6837	3066	-0.111736
29.7355	3072	-0.111874
29.7858	3078	-0.1122768
29.8352	3084	-0.111735
29.8867	3090	-0.112439
29.9377	3096	-0.111369
29.9877	3102	-0.11213
30.0382	3108	-0.112136
30.089	3114	-0.112746
30.1401	3120	-0.111487
30.19	3126	-0.111436
30.2409	3132	-0.112461
30.292	3138	-0.111863
30.3419	3144	-0.112398
30.3921	3150	-0.11346
30.4434	3156	-0.112504
30.4943	3162	-0.112321
30.5445	3168	-0.113062
30.5946	3174	-0.113144
30.6456	3180	-0.113413
30.697	3186	-0.113645
30.7469	3192	-0.113538
30.7973	3198	-0.11394
30.8487	3204	-0.113399
30.8991	3210	-0.112915
30.949	3216	-0.114089
31.0002	3222	-0.11368
31.051	3228	-0.113404
31.1012	3234	-0.112713
31.1512	3240	-0.114583
31.2026	3246	-0.113667
31.2538	3252	-0.113729
31.3037	3258	-0.114055
31.3541	3264	-0.115228
31.4054	3270	-0.114989
31.4561	3276	-0.11396
31.5058	3282	-0.115885
31.5563	3288	-0.115759
31.6075	3294	-0.115031
31.6584	3300	-0.114755
31.7085	3306	-0.115475
31.7591	3312	-0.116064
31.81	3318	-0.115431
31.8609	3324	-0.116283
31.9105	3330	-0.115969
31.9615	3336	-0.116764
32.0128	3342	-0.116131
32.063	3348	-0.115686
32.1128	3354	-0.116594
32.1642	3360	-0.116336
32.215	3366	-0.116643
32.2649	3372	-0.116198
32.3155	3378	-0.117124
32.3669	3384	-0.11651
32.4174	3390	-0.116216
32.4674	3396	-0.116391
32.5182	3402	-0.115908
32.5689	3408	-0.116853
32.6192	3414	-0.116859
32.6697	3420	-0.117315
32.7207	3426	-0.11749
32.7718	3432	-0.117515
32.8217	3438	-0.118853
32.8726	3444	-0.119102
32.9234	3450	-0.11922
32.9741	3456	-0.117726
33.0238	3462	-0.119045
33.0752	3468	-0.117906
33.126	3474	-0.117744
33.1764	3480	-0.118087
33.2265	3486	-0.118449
33.2773	3492	-0.119542
33.3282	3498	-0.118311
33.3783	3504	-0.119329
33.4288	3510	-0.118604
33.4802	3516	-0.117973
33.5308	3522	-0.119234
33.5807	3528	-0.119783
33.6313	3534	-0.118721
33.6831	3540	-0.119963
33.7332	3546	-0.118921
33.7827	3552	-0.119039
33.8344	3558	-0.119943
33.8857	3564	-0.119706
33.935	3570	-0.118046
33.9853	3576	-0.119381
34.0368	3582	-0.120678
34.0876	3588	-0.120572
34.1377	3594	-0.120521
34.1878	3600	-0.121069
34.2395	3606	-0.120121
34.2898	3612	-0.120595
34.3395	3618	-0.121255
34.3904	3624	-0.120756
34.4421	3630	-0.120632
34.4919	3636	-0.121311
34.5419	3642	-0.1203629
34.593	3648	-0.121023
34.6442	3654	-0.121497
34.6942	3660	-0.121409
34.7444	3666	-0.122368
34.7965	3672	-0.121178
34.8465	3678	-0.121315
34.8963	3684	-0.122348
34.9475	3690	-0.122746
34.9988	3696	-0.122584
35.0492	3702	-0.123169
35.0986	3708	-0.122465
35.1499	3714	-0.122956
35.2013	3720	-0.1229624
35.2511	3726	-0.123024
35.3009	3732	-0.123459
35.3523	3738	-0.12354
35.4032	3744	-0.123938
35.4529	3750	-0.124037
35.5039	3756	-0.124117
35.5554	3762	-0.125224
35.6053	3768	-0.123924
35.6552	3774	-0.12462
35.707	3780	-0.124607
35.758	3786	-0.124277
35.8073	3792	-0.1246
35.8577	3798	-0.124475
35.9095	3804	-0.124276
35.9598	3810	-0.125326
36.0096	3816	-0.125705
36.0609	3822	-0.12612
36.1121	3828	-0.125716
36.1618	3834	-0.125722
36.2121	3840	-0.124312
36.2634	3846	-0.125734
36.3142	3852	-0.124622
36.3641	3858	-0.125839
36.4145	3864	-0.124783
36.4665	3870	-0.126279
36.5165	3876	-0.126173
36.5661	3882	-0.127668
36.6176	3888	-0.12706
36.6684	3894	-0.126433
36.7185	3900	-0.127481
36.769	3906	-0.127617
36.8205	3912	-0.127623
36.8712	3918	-0.128745
36.9207	3924	-0.12797
36.9713	3930	-0.128087
37.0227	3936	-0.128167
37.0737	3942	-0.12875
37.1234	3948	-0.129611
37.174	3954	-0.129617
37.2256	3960	-0.129399
37.2759	3966	-0.12935
37.3254	3972	-0.129114
37.377	3978	-0.128933
37.4274	3984	-0.129571
37.4778	3990	-0.130172
37.5281	3996	-0.129862
37.5793	4002	-0.128827
37.6298	4008	-0.129688
37.6802	4014	-0.130065
37.7306	4020	-0.129959
37.7818	4026	-0.129557
37.8321	4032	-0.130027
37.8823	4038	-0.12981
37.9342	4044	-0.131338
37.9844	4050	-0.131215
38.0336	4056	-0.130366
38.0845	4062	-0.131003
38.1362	4068	-0.130786
38.1873	4074	-0.131034
38.2366	4080	-0.131485
38.2869	4086	-0.131936
38.339	4092	-0.132035
38.3892	4098	-0.132838
38.439	4104	-0.131286
38.4899	4110	-0.13285
38.5408	4116	-0.132262
38.5917	4122	-0.132027
38.6411	4128	-0.133313
38.6925	4134	-0.132391
38.7437	4140	-0.13199
38.7935	4146	-0.133645
38.8434	4152	-0.13391
38.8946	4158	-0.132841
38.9455	4164	-0.132551
38.9957	4170	-0.132353
39.0465	4176	-0.131803
39.0977	4182	-0.131939
39.1475	4188	-0.131742
39.1979	4194	-0.133192
39.2498	4200	-0.13079
39.3	4206	-0.130908
39.3496	4212	-0.133692
39.4004	4218	-0.133512
39.4515	4224	-0.133648
39.5026	4230	-0.133321
39.5527	4236	-0.13379
39.6028	4242	-0.13437
39.6546	4248	-0.134857
39.705	4254	-0.1341784
39.7544	4260	-0.134129
39.8052	4266	-0.135263
39.8574	4272	-0.135121
39.9073	4278	-0.134869
39.9569	4284	-0.13469
40.0079	4290	-0.134603
40.0592	4296	-0.134868
40.1087	4302	-0.1356325
40.1589	4308	-0.135879
40.2108	4314	-0.134461
40.2616	4320	-0.135392
40.3111	4326	-0.136655
40.3618	4332	-0.136975
40.4133	4338	-0.137166
40.4641	4344	-0.135675
40.5132	4350	-0.13655
40.5645	4356	-0.137036
40.6156	4362	-0.136433
40.6661	4368	-0.13703
40.7157	4374	-0.137867
40.7675	4380	-0.137061
40.8181	4386	-0.13703
40.8677	4392	-0.137756
40.9184	4398	-0.136821
40.9701	4404	-0.137104
41.0203	4410	-0.13687
41.0699	4416	-0.137707
41.1213	4422	-0.138304
41.1727	4428	-0.138347
41.2226	4434	-0.138076
41.2725	4440	-0.138396
41.3239	4446	-0.138679
41.3746	4452	-0.139497
41.4247	4458	-0.139189
41.4756	4464	-0.138605
41.5268	4470	-0.140253
41.577	4476	-0.140554
41.6269	4482	-0.139546
41.678	4488	-0.139976
41.729	4494	-0.139817
41.7792	4500	-0.140505
41.8292	4506	-0.139958
41.8803	4512	-0.139264
41.9316	4518	-0.14021
41.9813	4524	-0.140216
42.0318	4530	-0.14072
42.0835	4536	-0.14045
42.1338	4542	-0.140217
42.1831	4548	-0.140186
42.2348	4554	-0.140469
42.2856	4560	-0.140217
42.3359	4566	-0.140776
42.3863	4572	-0.140616
42.4373	4578	-0.140844
42.4881	4584	-0.140095
42.5381	4590	-0.141611
42.5887	4596	-0.141949
42.6401	4602	-0.140299
42.6901	4608	-0.141262
42.7402	4614	-0.14171
42.7915	4620	-0.140999
42.8427	4626	-0.14268
42.8923	4632	-0.142098
42.9428	4638	-0.141607
42.9943	4644	-0.141466
43.0449	4650	-0.140535
43.0944	4656	-0.142565
43.1455	4662	-0.142442
43.1964	4668	-0.141934
43.2471	4674	-0.1424
43.2969	4680	-0.142186
43.3479	4686	-0.141328
43.3992	4692	-0.143651
43.449	4698	-0.144007
43.4992	4704	-0.14291
43.5506	4710	-0.14391
43.6015	4716	-0.143383
43.6515	4722	-0.143739
43.7023	4728	-0.143451
43.7531	4734	-0.144597
43.8034	4740	-0.144034
43.8536	4746	-0.145418
43.9052	4752	-0.144947
43.9557	4758	-0.145652
44.0057	4764	-0.144519
44.0561	4770	-0.145297
44.1074	4776	-0.144992
44.158	4782	-0.144227
44.2079	4788	-0.144178
44.259	4794	-0.144736
44.3099	4800	-0.144761
44.3603	4806	-0.145722
44.4106	4812	-0.145527
44.4614	4818	-0.145185
44.5124	4824	-0.145155
44.5622	4830	-0.146886
44.6124	4836	-0.145865
44.6644	4842	-0.14578
44.7146	4848	-0.145658
44.7646	4854	-0.145849
44.8157	4860	-0.145598
44.867	4866	-0.146797
44.9168	4872	-0.146272
44.9668	4878	-0.145967
45.0183	4884	-0.146561
45.0694	4890	-0.146659
45.1182	4896	-0.146721
45.1691	4902	-0.147773
45.2208	4908	-0.14679
45.2716	4914	-0.146595
45.3215	4920	-0.147774
45.3718	4926	-0.147176
45.4227	4932	-0.147623
45.4735	4938	-0.14719
45.5236	4944	-0.147985
45.575	4950	-0.147479
45.6254	4956	-0.148219
45.6754	4962	-0.147969
45.7265	4968	-0.146968
45.7775	4974	-0.146829
45.8271	4980	-0.147623
45.8776	4986	-0.147245
45.9296	4992	-0.146758
45.9801	4998	-0.147369
46.0295	5004	-0.147559
46.0806	5010	-0.14872
46.1313	5016	-0.148269
46.182	5022	-0.149137
46.2323	5028	-0.149418
46.2835	5034	-0.149004
46.3341	5040	-0.1487
46.3842	5046	-0.149896
46.4347	5052	-0.149666
46.4857	5058	-0.149288
46.5365	5064	-0.14968
46.5863	5070	-0.149705
46.6368	5076	-0.149694
46.6885	5082	-0.149664
46.7392	5088	-0.149543
46.789	5094	-0.150483
46.8396	5100	-0.150709
46.8909	5106	-0.150223
46.9409	5112	-0.151272
46.9911	5118	-0.150767
47.0427	5124	-0.150062
47.0932	5130	-0.152263
47.1432	5136	-0.151996
47.1929	5142	-0.150924
47.2449	5148	-0.151808
47.2957	5154	-0.151048
47.3452	5160	-0.151622
47.3962	5166	-0.151373
47.4472	5172	-0.15085
47.497	5178	-0.1502
47.5476	5184	-0.151322
47.5993	5190	-0.151183
47.6501	5196	-0.151556
47.6998	5202	-0.152805
47.7504	5208	-0.15241
47.801	5214	-0.152071
47.8518	5220	-0.150818
47.9024	5226	-0.152451
47.9528	5232	-0.15222
48.0039	5238	-0.150932
48.0546	5244	-0.152309
48.1044	5250	-0.152626
48.1549	5256	-0.152232
48.2069	5262	-0.151856
48.257	5268	-0.152849
48.307	5274	-0.152966
48.3579	5280	-0.153649
48.4088	5286	-0.154332
48.4591	5292	-0.155835
48.5087	5298	-0.153817
48.5602	5304	-0.154189
48.6117	5310	-0.154252
48.6615	5316	-0.154314
48.7118	5322	-0.154595
48.7629	5328	-0.155788
48.8136	5334	-0.154829
48.8632	5340	-0.155219
48.9144	5346	-0.154753
48.9654	5352	-0.155107
49.0152	5358	-0.153656
49.0658	5364	-0.153426
49.1176	5370	-0.154874
49.1677	5376	-0.154809
49.2174	5382	-0.154799
49.2683	5388	-0.155772
49.3207	5394	-0.15567
49.3702	5400	-0.154895
49.4194	5406	-0.154829
49.4713	5412	-0.156386
49.5223	5418	-0.156831
49.5721	5424	-0.156256
49.6219	5430	-0.156974
49.6739	5436	-0.156271
49.7248	5442	-0.155987
49.7738	5448	-0.157397
49.8243	5454	-0.15919
49.8765	5460	-0.158651
49.9272	5466	-0.159223
49.9771	5472	-0.157647
50.027	5478	-0.158784
50.0786	5484	-0.157808
50.1294	5490	-0.159309
50.1786	5496	-0.159226
50.2297	5502	-0.15896
50.2814	5508	-0.157876
50.3317	5514	-0.158831
50.3815	5520	-0.158165
50.4327	5526	-0.159174
50.4837	5532	-0.159273
50.5332	5538	-0.158189
50.5835	5544	-0.159216
50.6353	5550	-0.158496
50.686	5556	-0.158012
50.7356	5562	-0.158075
50.7865	5568	-0.158774
50.8373	5574	-0.15871
50.8882	5580	-0.158318
50.938	5586	-0.15949
50.9886	5592	-0.160352
51.04	5598	-0.159633
51.0906	5604	-0.158859
51.1408	5610	-0.160068
51.1912	5616	-0.159294
51.2426	5622	-0.158575
51.2929	5628	-0.15931
51.3431	5634	-0.160391
51.3937	5640	-0.159272
51.4446	5646	-0.159935
51.4952	5652	-0.16047
51.5456	5658	-0.16066
51.5968	5664	-0.161631
51.6471	5670	-0.160567
51.6968	5676	-0.15885
51.7478	5682	-0.159203
51.7994	5688	-0.160919
51.8491	5694	-0.160474
51.8993	5700	-0.161426
51.9505	5706	-0.161471
52.0019	5712	-0.159391
52.0522	5718	-0.16196
52.102	5724	-0.160897
52.153	5730	-0.16007
52.204	5736	-0.159334
52.2538	5742	-0.159307
52.3041	5748	-0.159987
52.3557	5754	-0.160776
52.4061	5760	-0.161111
52.4567	5766	-0.160866
52.5072	5772	-0.160693
52.5585	5778	-0.160992
52.6084	5784	-0.161055
52.6585	5790	-0.159412
52.7097	5796	-0.160836
52.761	5802	-0.16226
52.8112	5808	-0.161035
52.8608	5814	-0.162133
52.9121	5820	-0.161688
52.9629	5826	-0.16322
53.0132	5832	-0.162613
53.0636	5838	-0.161206
53.1157	5844	-0.16214
53.1655	5850	-0.1626748
53.2148	5856	-0.162938
53.2662	5862	-0.16233
53.3176	5868	-0.165095
53.367	5874	-0.16427
53.4169	5880	-0.162719
53.4688	5886	-0.164704
53.52	5892	-0.162646
53.5702	5898	-0.163489
53.6196	5904	-0.163697
53.671	5910	-0.162637
53.7223	5916	-0.163516
53.7723	5922	-0.163434
53.8223	5928	-0.162446
53.874	5934	-0.162945
53.9246	5940	-0.163606
53.9743	5946	-0.165083
54.0249	5952	-0.164132
54.0764	5958	-0.1647387
54.127	5964	-0.164241
54.1767	5970	-0.164739
54.2278	5976	-0.165509
54.2793	5982	-0.164666
54.3291	5988	-0.165563
54.3782	5994	-0.164848
54.4303	6000	-0.165636
54.4812	6006	-0.166243
54.5313	6012	-0.166397
54.5815	6018	-0.165808
54.6327	6024	-0.164514
54.6836	6030	-0.165048
54.7334	6036	-0.164478
54.7843	6042	-0.164506
54.8359	6048	-0.165619
54.8849	6054	-0.163293
54.9351	6060	-0.165059
54.9872	6066	-0.164326
55.0375	6072	-0.164987
55.0873	6078	-0.16563
55.1388	6084	-0.166617
55.1894	6090	-0.167187
55.2396	6096	-0.166545
55.2893	6102	-0.168473
55.3409	6108	-0.165913
55.3926	6114	-0.167243
55.4426	6120	-0.167832
55.492	6126	-0.167335
55.5435	6132	-0.167471
55.5944	6138	-0.16786
55.6448	6144	-0.167255
55.6945	6150	-0.164407
55.7462	6156	-0.166279
55.797	6162	-0.166813
55.8467	6168	-0.166462
55.897	6174	-0.167918
55.9483	6180	-0.167096
55.9993	6186	-0.168462
56.0491	6192	-0.167061
56.0997	6198	-0.168011
56.1508	6204	-0.168672
56.202	6210	-0.167868
56.2513	6216	-0.168005
56.302	6222	-0.169298
56.3541	6228	-0.169506
56.4038	6234	-0.168522
56.4537	6240	-0.168677
56.5051	6246	-0.167711
56.5557	6252	-0.167775
56.606	6258	-0.168074
56.656	6264	-0.17047
56.7075	6270	-0.169341
56.7583	6276	-0.17011
56.8087	6282	-0.169921
56.8586	6288	-0.170166
56.9096	6294	-0.170393
56.9608	6300	-0.171071
57.0102	6306	-0.169401
57.0609	6312	-0.170513
57.1129	6318	-0.170144
57.1628	6324	-0.17001
57.2128	6330	-0.16993
57.2635	6336	-0.170861
57.3154	6342	-0.17219
57.3652	6348	-0.170249
57.4156	6354	-0.171163
57.4658	6360	-0.172003
57.5175	6366	-0.172321
57.568	6372	-0.171482
57.6176	6378	-0.172269
57.6683	6384	-0.172496
57.7197	6390	-0.171766
57.7702	6396	-0.172896
57.8204	6402	-0.172274
57.8717	6408	-0.171364
57.9216	6414	-0.172331
57.9719	6420	-0.17171
58.0227	6426	-0.17033
58.0742	6432	-0.169817
58.1235	6438	-0.170622
58.174	6444	-0.171355
58.2255	6450	-0.171203
58.2772	6456	-0.173072
58.3262	6462	-0.173949
58.3762	6468	-0.17248
58.4278	6474	-0.173266
58.479	6480	-0.173692
58.5284	6486	-0.17345
58.5793	6492	-0.174002
58.6307	6498	-0.174012
58.6811	6504	-0.174835
58.7309	6510	-0.174701
58.7814	6516	-0.174297
58.8335	6522	-0.173767
58.8836	6528	-0.174932
58.9327	6534	-0.173319
58.9846	6540	-0.173619
59.0355	6546	-0.173864
59.0858	6552	-0.174578
59.1359	6558	-0.175112
59.1876	6564	-0.173518
59.2373	6570	-0.1736013
59.2877	6576	-0.174478
59.3388	6582	-0.174813
59.3893	6588	-0.174121
59.44	6594	-0.176079
59.4911	6600	-0.175585
59.5413	6606	-0.176372
59.5918	6612	-0.177482
59.6425	6618	-0.176358
59.6918	6624	-0.177018
59.7439	6630	-0.177479
59.7945	6636	-0.176139
59.844	6642	-0.177141
59.8949	6648	-0.17717
59.9464	6654	-0.176893
59.9969	6660	-0.175048
60.0462	6666	-0.176555
60.0979	6672	-0.177215
60.1492	6678	-0.177929
60.1987	6684	-0.177166
60.249	6690	-0.178042
60.3008	6696	-0.178053
60.3508	6702	-0.178605
60.401	6708	-0.179084
60.4514	6714	-0.178069
60.5033	6720	-0.178657
60.5536	6726	-0.179137
60.6034	6732	-0.180481
60.6541	6738	-0.180024
60.7054	6744	-0.179621
60.7559	6750	-0.179183
60.8055	6756	-0.179914
60.8567	6762	-0.179764
60.9076	6768	-0.180712
60.9578	6774	-0.180147
61.0084	6780	-0.179006
61.0593	6786	-0.178748
61.1103	6792	-0.179408
61.1606	6798	-0.179527
61.2103	6804	-0.180367
61.2618	6810	-0.179065
61.3121	6816	-0.179239
61.3628	6822	-0.180132
61.413	6828	-0.180972
61.4648	6834	-0.179112
61.5154	6840	-0.178332
61.5649	6846	-0.179244
61.6153	6852	-0.178014
61.6667	6858	-0.17853
61.7168	6864	-0.180468
61.7677	6870	-0.181307
61.8183	6876	-0.181787
61.8693	6882	-0.181043
61.9189	6888	-0.17976
61.9697	6894	-0.181391
62.0222	6900	-0.181242
62.0715	6906	-0.17976
62.1206	6912	-0.179988
62.1726	6918	-0.18189
62.2238	6924	-0.182298
62.2734	6930	-0.18204
62.3242	6936	-0.181854
62.375	6942	-0.182046
62.4254	6948	-0.181033
62.4756	6954	-0.182665
62.5263	6960	-0.183594
62.5779	6966	-0.18411
62.6277	6972	-0.183511
62.6781	6978	-0.182606
62.729	6984	-0.181431
62.7801	6990	-0.182793
62.8306	6996	-0.18365
62.8798	7002	-0.184562
62.9311	7008	-0.184035
62.9824	7014	-0.184065
63.0321	7020	-0.181956
63.0827	7026	-0.181897
63.1344	7032	-0.181783
63.1846	7038	-0.184421
63.2348	7044	-0.184955
63.286	7050	-0.183853
63.3367	7056	-0.18338
63.387	7062	-0.185479
63.4369	7068	-0.184395
63.4878	7074	-0.184893
63.5391	7080	-0.184995
63.5895	7086	-0.185404
63.6394	7092	-0.187016
63.6902	7098	-0.185771
63.7418	7104	-0.182476
63.7915	7110	-0.184736
63.8421	7116	-0.185252
63.8935	7122	-0.184744
63.9441	7128	-0.186051
63.9931	7134	-0.185507
64.045	7140	-0.187209
64.0954	7146	-0.186144
64.1462	7152	-0.186157
64.1961	7158	-0.184211
64.2469	7164	-0.184727
64.2986	7170	-0.184992
64.3485	7176	-0.18558
64.3982	7182	-0.186294
64.4491	7188	-0.185571
64.5007	7194	-0.18553
64.5504	7200	-0.186047