File: rawdata/empty_5
empty
Furnace temperature 	Time	HeatFlow
/°C	/s	/mW
64.8078	0	-0.186906
64.9391	2.1	-0.188378
65.2647	4.2	-0.188737
65.7274	6.3	-0.190463
66.263	8.4	-0.194706
66.7779	10.5	-0.203155
67.2141	12.6	-0.216403
67.5375	14.7	-0.233606
67.7417	16.8	-0.255752
67.8468	18.9	-0.280952
67.8794	21	-0.308166
67.8731	23.1	-0.336314
67.8532	25.2	-0.365002
67.836	27.3	-0.393763
67.8305	29.4	-0.421951
67.8337	31.5	-0.449852
67.8418	33.6	-0.477666
67.8499	35.7	-0.505967
67.8529	37.8	-0.534287
67.8484	39.9	-0.562897
67.8377	42	-0.590087
67.8214	44.1	-0.616289
67.8027	46.2	-0.6419
67.7821	48.3	-0.66663
67.7608	50.4	-0.690104
67.739	52.5	-0.712787
67.7179	54.6	-0.735131
67.6946	56.7	-0.754564
67.67	58.8	-0.772919
67.6444	60.9	-0.79097
67.6178	63	-0.807565
67.5897	65.1	-0.822363
67.5605	67.2	-0.835112
67.5311	69.3	-0.847341
67.5013	71.4	-0.859372
67.4715	73.5	-0.868941
67.4412	75.6	-0.87673
67.4102	77.7	-0.884825
67.3782	79.8	-0.890098
67.3455	81.9	-0.894274
67.312	84	-0.898541
67.2779	86.1	-0.900938
67.2436	88.2	-0.902436
67.2093	90.3	-0.903538
67.1743	92.4	-0.903687
67.1395	94.5	-0.902469
67.1043	96.6	-0.899399
67.0688	98.7	-0.895771
67.0328	100.8	-0.89155
66.9962	102.9	-0.889073
66.9595	105	-0.884114
66.9227	107.1	-0.876133
66.8856	109.2	-0.868079
66.8481	111.3	-0.859936
66.8106	113.4	-0.851108
66.7728	115.5	-0.84165
66.7349	117.6	-0.831274
66.697	119.7	-0.820592
66.6585	121.8	-0.810054
66.62	123.9	-0.799065
66.5812	126	-0.788382
66.5423	128.1	-0.777104
66.5032	130.2	-0.764135
66.464	132.3	-0.751434
66.4247	134.4	-0.738049
66.3853	136.5	-0.725401
66.3456	138.6	-0.712663
66.306	140.7	-0.699528
66.2662	142.8	-0.685744
66.2263	144.9	-0.669728
66.1863	147	-0.65526
66.1461	149.1	-0.64259
66.1058	151.2	-0.628228
66.0655	153.3	-0.612065
66.025	155.4	-0.596963
65.9845	157.5	-0.582149
65.9439	159.6	-0.567747
65.9032	161.7	-0.552318
65.8984	163.8	-0.538329
65.9061	165.9	-0.523349
65.9013	168	-0.507288
65.88	170.1	-0.492594
65.8432	172.2	-0.48015
65.7952	174.3	-0.466662
65.743	176.4	-0.45454
65.6917	178.5	-0.440636
65.6457	180.6	-0.424714
65.6059	182.7	-0.409601
65.5712	184.8	-0.396684
65.5392	186.9	-0.381696
65.5074	189	-0.367733
65.4726	191.1	-0.354616
65.4349	193.2	-0.341696
65.3943	195.3	-0.328343
65.3513	197.4	-0.317313
65.3084	199.5	-0.304715
65.2655	201.6	-0.290225
65.2235	203.7	-0.27523
65.1828	205.8	-0.261062
65.1423	207.9	-0.248533
65.1021	210	-0.236219
65.061	212.1	-0.223545
65.0198	214.2	-0.210004
64.9778	216.3	-0.197346
64.9354	218.4	-0.186452
64.893	220.5	-0.178044
64.8508	222.6	-0.166375
64.8084	224.7	-0.153533
64.766	226.8	-0.141357
64.7242	228.9	-0.129433
64.6819	231	-0.118571
64.6392	233.1	-0.107312
64.5961	235.2	-0.0982153
64.5527	237.3	-0.08722537
64.5091	239.4	-0.0768474
64.4658	241.5	-0.0680728
64.4226	243.6	-0.0585045
64.3801	245.7	-0.0475478
64.3371	247.8	-0.0381585
64.2946	249.9	-0.0286964
64.2513	252	-0.0193058
64.2084	254.1	-0.0104554
64.1648	256.2	-0.004813271
64.1209	258.3	0.003245014
64.0772	260.4	0.0117005
64.0335	262.5	0.0194714
63.9905	264.6	0.0256743
63.9469	266.7	0.0342937
63.9035	268.8	0.04406767
63.8598	270.9	0.0518588
63.8165	273	0.0577211
63.7728	275.1	0.0626281
63.7295	277.2	0.0708535
63.6854	279.3	0.0792058
63.6413	281.4	0.0846911
63.5974	283.5	0.090736
63.5539	285.6	0.0965649
63.5102	287.7	0.101637
63.4667	289.8	0.105807
63.4235	291.9	0.111907
63.3799	294	0.118766
63.336	296.1	0.123605
63.2922	298.2	0.129292
63.2486	300.3	0.13507
63.2048	302.4	0.139855
63.1607	304.5	0.144443
63.1166	306.6	0.149428
63.0723	308.7	0.15528
63.0285	310.8	0.158786
62.9851	312.9	0.162599
62.9414	315	0.165979
62.8981	317.1	0.171038
62.855	319.2	0.175935
62.8115	321.3	0.178919
62.7674	323.4	0.183528
62.7234	325.5	0.18821
62.6798	327.6	0.193343
62.6356	329.7	0.196401
62.5916	331.8	0.201263
62.5475	333.9	0.20526
62.5042	336	0.206947
62.4606	338.1	0.208959
62.4178	340.2	0.212433
62.3746	342.3	0.216521
62.3308	344.4	0.220321
62.2869	346.5	0.223146
62.2428	348.6	0.226549
62.1991	350.7	0.229772
62.1544	352.8	0.231875
62.1114	354.9	0.232137
62.0677	357	0.234331
62.0248	359.1	0.236417
61.9815	361.2	0.238196
61.938	363.3	0.243244
61.8942	365.4	0.249377
61.8507	367.5	0.250127
61.807	369.6	0.251943
61.7634	371.7	0.256903
61.7194	373.8	0.258268
61.6758	375.9	0.258585
61.6322	378	0.256771
61.5895	380.1	0.257251
61.5457	382.2	0.259339
61.5027	384.3	0.263089
61.4595	386.4	0.26431
61.416	388.5	0.264989
61.373	390.6	0.267114
61.329	392.7	0.269059
61.285	394.8	0.272051
61.2415	396.9	0.272243
61.1981	399	0.272778
61.1548	401.1	0.274724
61.1118	403.2	0.276777
61.0689	405.3	0.280638
61.0258	407.4	0.283126
60.9823	409.5	0.283608
60.9387	411.6	0.284903
60.8952	413.7	0.286
60.852	415.8	0.287458
60.8084	417.9	0.288085
60.7651	420	0.288766
60.722	422.1	0.289627
60.6785	424.2	0.289784
60.6349	426.3	0.290194
60.5917	428.4	0.293353
60.5488	430.5	0.293817
60.506	432.6	0.293721
60.4629	434.7	0.293354
60.4197	436.8	0.292389
60.3765	438.9	0.295242
60.3329	441	0.29757
60.2895	443.1	0.296081
60.2461	445.2	0.293543
60.2027	447.3	0.295473
60.1595	449.4	0.293894
60.1164	451.5	0.292206
60.0735	453.6	0.294046
60.0303	455.7	0.298292
59.9879	457.8	0.299952
59.9451	459.9	0.297739
59.902	462	0.296667
59.8584	464.1	0.299014
59.8144	466.2	0.300403
59.771	468.3	0.298805
59.7279	470.4	0.299922
59.6854	472.5	0.30256
59.6426	474.6	0.306591
59.5999	476.7	0.308849
59.5569	478.8	0.30727
59.5137	480.9	0.307121
59.4707	483	0.307298
59.4278	485.1	0.30599
59.3843	487.2	0.30776
59.3411	489.3	0.308987
59.2976	491.4	0.307118
59.255	493.5	0.306389
59.2123	495.6	0.30633
59.1699	497.7	0.308771
59.1268	499.8	0.309835
59.084	501.9	0.309758
59.041	504	0.308143
58.9977	506.1	0.309443
58.9549	508.2	0.311486
58.912	510.3	0.312569
58.8688	512.4	0.312982
58.8257	514.5	0.313576
58.7827	516.6	0.314152
58.7395	518.7	0.313713
58.697	520.8	0.31342
58.6543	522.9	0.312419
58.6114	525	0.310422
58.568	527.1	0.307827
58.5249	529.2	0.308839
58.4821	531.3	0.310756
58.4396	533.4	0.310517
58.3969	535.5	0.309263
58.354	537.6	0.311181
58.3117	539.7	0.311594
58.2692	541.8	0.311119
58.2265	543.9	0.311279
58.1839	546	0.31104
58.1406	548.1	0.310275
58.0971	550.2	0.311505
58.0538	552.3	0.312644
58.0111	554.4	0.311571
57.9683	556.5	0.310371
57.926	558.6	0.311292
57.8825	560.7	0.311053
57.8403	562.8	0.310306
57.7977	564.9	0.309505
57.7552	567	0.30767
57.7126	569.1	0.307958
57.6694	571.2	0.309043
57.6264	573.3	0.308622
57.5833	575.4	0.30842
57.5406	577.5	0.307981
57.4976	579.6	0.30767
57.4545	581.7	0.306633
57.4121	583.8	0.30643
57.3699	585.9	0.307334
57.3274	588	0.307295
57.2847	590.1	0.307963
57.2421	592.2	0.307126
57.1992	594.3	0.3065238
57.1562	596.4	0.307828
57.113	598.5	0.308896
57.07	600.6	0.307949
57.0271	602.7	0.306893
56.9844	604.8	0.305202
56.942	606.9	0.304691
56.8998	609	0.305306
56.8573	611.1	0.303215
56.8145	613.2	0.3034482
56.7718	615.3	0.304662
56.7291	617.4	0.30397
56.6857	619.5	0.303985
56.6433	621.6	0.304236
56.6002	623.7	0.303308
56.5578	625.8	0.303813
56.515	627.9	0.305136
56.4724	630	0.304135
56.4303	632.1	0.301989
56.3877	634.2	0.302422
56.3453	636.3	0.304836
56.3022	638.4	0.304306
56.2592	640.5	0.301633
56.216	642.6	0.300904
56.1734	644.7	0.299248
56.1307	646.8	0.299536
56.0876	648.9	0.301242
56.0451	651	0.302675
56.003	653.1	0.303817
55.9611	655.2	0.30427
55.9186	657.3	0.302195
55.8757	659.4	0.301157
55.8329	661.5	0.301537
55.7892	663.6	0.301644
55.747	665.7	0.302842
55.7042	667.8	0.303985
55.662	669.9	0.30491
55.6193	672	0.304744
55.5772	674.1	0.303978
55.5346	676.2	0.301794
55.4921	678.3	0.301119
55.4491	680.4	0.301062
55.4061	682.5	0.299914
55.3629	684.6	0.301659
55.3205	686.7	0.301075
55.2779	688.8	0.301037
55.2352	690.9	0.302399
55.1922	693	0.302034
55.15	695.1	0.300776
55.1077	697.2	0.298136
55.0652	699.3	0.296368
55.0229	701.4	0.297167
54.9803	703.5	0.297638
54.9375	705.6	0.296635
54.8945	707.7	0.296779
54.8519	709.8	0.295339
54.8088	711.9	0.295993
54.7662	714	0.295736
54.7238	716.1	0.294424
54.6812	718.2	0.294185
54.6392	720.3	0.294729
54.5965	722.4	0.294781
54.554	724.5	0.295144
54.5111	726.6	0.294723
54.4683	728.7	0.293957
54.4252	730.8	0.295521
54.3829	732.9	0.2947
54.3404	735	0.291529
54.2981	737.1	0.292111
54.256	739.2	0.292072
54.2132	741.3	0.292125
54.1709	743.4	0.291449
54.128	745.5	0.292067
54.0853	747.6	0.293504
54.0426	749.7	0.293776
53.9999	751.8	0.293903
53.9568	753.9	0.294011
53.9138	756	0.290018
53.8715	758.1	0.289178
53.8292	760.2	0.289614
53.787	762.3	0.290377
53.7443	764.4	0.290485
53.7022	766.5	0.291923
53.6597	768.6	0.292815
53.6174	770.7	0.293015
53.575	772.8	0.291974
53.5319	774.9	0.292593
53.4894	777	0.293577
53.4466	779.1	0.292882
53.4038	781.2	0.291714
53.3607	783.3	0.291238
53.3183	785.4	0.29162
53.2761	787.5	0.291783
53.2338	789.6	0.290249
53.1914	791.7	0.289008
53.1487	793.8	0.289554
53.1053	795.9	0.28844
53.0626	798	0.287435
53.0198	800.1	0.286339
52.9775	802.2	0.287086
52.9349	804.3	0.287231
52.893	806.4	0.286189
52.8511	808.5	0.28471
52.8085	810.6	0.283138
52.7655	812.7	0.283849
52.7227	814.8	0.286184
52.6802	816.9	0.286457
52.6379	819	0.286109
52.5956	821.1	0.287514
52.5533	823.2	0.287531
52.5107	825.3	0.286489
52.4683	827.4	0.281649
52.4257	829.5	0.278361
52.3829	831.6	0.280003
52.3395	833.7	0.281499
52.2968	835.8	0.282886
52.2538	837.9	0.283981
52.2113	840	0.285186
52.169	842.1	0.284728
52.1268	844.2	0.284581
52.0844	846.3	0.281474
52.0421	848.4	0.278257
52.0002	850.5	0.277635
51.9571	852.6	0.280557
51.9149	854.7	0.280976
51.8722	856.8	0.280445
51.8295	858.9	0.281413
51.7867	861	0.282217
51.744	863.1	0.283404
51.7011	865.2	0.281831
51.659	867.3	0.280277
51.617	869.4	0.279782
51.5747	871.5	0.279105
51.5324	873.6	0.278207
51.4904	875.7	0.278115
51.4473	877.8	0.27859
51.4039	879.9	0.279247
51.3611	882	0.278771
51.3182	884.1	0.278148
51.2764	886.2	0.275221
51.2341	888.3	0.273007
51.1919	890.4	0.274304
51.1491	892.5	0.277359
51.1066	894.6	0.2769
51.0639	896.7	0.275582
51.021	898.8	0.273312
50.9787	900.9	0.271701
50.9364	903	0.272908
50.8942	905.1	0.274938
50.8521	907.2	0.274992
50.8094	909.3	0.271807
50.7668	911.4	0.270543
50.7242	913.5	0.270926
50.6816	915.6	0.270468
50.6388	917.7	0.273323
50.5962	919.8	0.275593
50.5536	921.9	0.275702
50.5111	924	0.273669
50.4686	926.1	0.273942
50.4259	928.2	0.272843
50.3835	930.3	0.272531
50.3409	932.4	0.269508
50.2989	934.5	0.269123
50.2563	936.6	0.271027
50.2144	938.7	0.271869
50.1718	940.8	0.270934
50.1292	942.9	0.26987
50.086	945	0.271537
50.0434	947.1	0.2705293
50.0005	949.2	0.267871
49.9577	951.3	0.26974
49.9152	953.4	0.26963
49.8725	955.5	0.268713
49.8302	957.6	0.268107
49.7883	959.7	0.267245
49.746	961.8	0.267904
49.7036	963.9	0.266491
49.6608	966	0.264235
49.6183	968.1	0.262676
49.5762	970.2	0.264509
49.5337	972.3	0.265866
49.4908	974.4	0.268396
49.4479	976.5	0.26702
49.4049	978.6	0.262636
49.3625	980.7	0.260855
49.3204	982.8	0.258487
49.2784	984.9	0.257679
49.2359	987	0.259935
49.1931	989.1	0.261879
49.1507	991.2	0.263383
49.1082	993.3	0.263474
49.0656	995.4	0.259033
49.0228	997.5	0.25861
48.98	999.6	0.260683
48.9379	1001.7	0.261362
48.8949	1003.8	0.261196
48.8523	1005.9	0.261104
48.8102	1008	0.262186
48.7678	1010.1	0.262094
48.7253	1012.2	0.261249
48.6829	1014.3	0.260862
48.64	1016.4	0.260678
48.5973	1018.5	0.260659
48.5549	1020.6	0.260696
48.5126	1022.7	0.258932
48.4697	1024.8	0.25838
48.4272	1026.9	0.258508
48.3848	1029	0.258324
48.343	1031.1	0.258048
48.3002	1033.2	0.258121
48.2577	1035.3	0.257367
48.2152	1037.4	0.256503
48.1722	1039.5	0.258891
48.1302	1041.6	0.259406
48.0879	1043.7	0.258725
48.0457	1045.8	0.258008
48.003	1047.9	0.258449
47.9603	1050	0.260122
47.9177	1052.1	0.258964
47.8746	1054.2	0.259533
47.8323	1056.3	0.256628
47.7899	1058.4	0.253224
47.7474	1060.5	0.252084
47.7049	1062.6	0.253904
47.6622	1064.7	0.255909
47.6196	1066.8	0.257564
47.5769	1068.9	0.256718
47.535	1071	0.2560184
47.4928	1073.1	0.255374
47.4505	1075.2	0.255135
47.4082	1077.3	0.255153
47.3652	1079.4	0.252944
47.3221	1081.5	0.253661
47.2794	1083.6	0.251728
47.2367	1085.7	0.253237
47.1943	1087.8	0.253108
47.1522	1089.9	0.253108
47.1097	1092	0.251709
47.0676	1094.1	0.251764
47.0253	1096.2	0.251524
46.9827	1098.3	0.250566
46.9403	1100.4	0.251081
46.8973	1102.5	0.252517
46.8547	1104.6	0.251928
46.8114	1106.7	0.251394
46.769	1108.8	0.249533
46.7267	1110.9	0.249975
46.684	1113	0.250029
46.6417	1115.1	0.250379
46.5994	1117.2	0.249918
46.5567	1119.3	0.250084
46.5146	1121.4	0.249494
46.472	1123.5	0.247872
46.4289	1125.6	0.248425
46.3861	1127.7	0.251393
46.344	1129.8	0.248812
46.3016	1131.9	0.245069
46.2595	1134	0.246027
46.2173	1136.1	0.246525
46.175	1138.2	0.244736
46.1319	1140.3	0.244329
46.0894	1142.4	0.245546
46.0473	1144.5	0.245085
46.0049	1146.6	0.244107
45.9621	1148.7	0.244992
45.9191	1150.8	0.24429
45.8767	1152.9	0.243884
45.834	1155	0.241633
45.7919	1157.1	0.242168
45.7499	1159.2	0.241965
45.7076	1161.3	0.242075
45.6653	1163.4	0.239952
45.6224	1165.5	0.241004
45.5794	1167.6	0.242868
45.5362	1169.7	0.242111
45.4935	1171.8	0.242517
45.451	1173.9	0.2424611
45.4088	1176	0.242147
45.3665	1178.1	0.240041
45.3243	1180.2	0.240041
45.2821	1182.3	0.23993
45.24	1184.4	0.238507
45.1977	1186.5	0.237879
45.1549	1188.6	0.236955
45.1119	1190.7	0.235291
45.0696	1192.8	0.234329
45.0268	1194.9	0.2376
44.9838	1197	0.238948
44.9413	1199.1	0.237913
44.8989	1201.2	0.235676
44.8567	1203.3	0.235824
44.8142	1205.4	0.23673
44.7714	1207.5	0.237099
44.7288	1209.6	0.236452
44.6866	1211.7	0.236137
44.6442	1213.8	0.234399
44.6017	1215.9	0.234417
44.5586	1218	0.234805
44.5162	1220.1	0.232899
44.4734	1222.2	0.231881
44.4307	1224.3	0.232361
44.3885	1226.4	0.232028
44.3465	1228.5	0.231713
44.305	1230.6	0.231657
44.2628	1232.7	0.230528
44.2194	1234.8	0.230287
44.1766	1236.9	0.229787
44.134	1239	0.231581
44.0909	1241.1	0.230433
44.0486	1243.2	0.229118
44.0058	1245.3	0.229803
43.9638	1247.4	0.232006
43.9222	1249.5	0.232728
43.8799	1251.6	0.231894
43.8375	1253.7	0.229042
43.7953	1255.8	0.229245
43.7531	1257.9	0.23119
43.7098	1260	0.232412
43.6669	1262.1	0.231782
43.6243	1264.2	0.2298
43.5811	1266.3	0.229577
43.5384	1268.4	0.228669
43.4958	1270.5	0.228927
43.4535	1272.6	0.229242
43.4111	1274.7	0.229965
43.3686	1276.8	0.229779
43.3264	1278.9	0.227462
43.284	1281	0.227462
43.2418	1283.1	0.225922
43.1988	1285.2	0.225533
43.1565	1287.3	0.226237
43.1135	1289.4	0.22809
43.0713	1291.5	0.228832
43.0295	1293.6	0.227923
42.9869	1295.7	0.226569
42.9452	1297.8	0.220966
42.9027	1299.9	0.221764
42.8599	1302	0.223526
42.817	1304.1	0.223915
42.7744	1306.2	0.226141
42.7314	1308.3	0.226753
42.6887	1310.4	0.225639
42.6462	1312.5	0.224989
42.6036	1314.6	0.223838
42.5614	1316.7	0.224098
42.5191	1318.8	0.224951
42.477	1320.9	0.224747
42.4342	1323	0.22432
42.3916	1325.1	0.224413
42.349	1327.2	0.223057
42.3066	1329.3	0.221422
42.2639	1331.4	0.221124
42.2215	1333.5	0.220604
42.1795	1335.6	0.221235
42.1375	1337.7	0.222814
42.0956	1339.8	0.22324
42.0531	1341.9	0.220843
42.01	1344	0.220843
41.9671	1346.1	0.220732
41.9241	1348.2	0.218612
41.8811	1350.3	0.21666
41.8386	1352.4	0.21599
41.7961	1354.5	0.216473
41.7542	1356.6	0.217141
41.7118	1358.7	0.217327
41.6694	1360.8	0.215857
41.6277	1362.9	0.216563
41.5852	1365	0.217344
41.5425	1367.1	0.216413
41.5003	1369.2	0.215613
41.4574	1371.3	0.217064
41.4141	1373.4	0.216784
41.3712	1375.5	0.213881
41.3288	1377.6	0.212112
41.2866	1379.7	0.211851
41.2444	1381.8	0.213097
41.2019	1383.9	0.215833
41.1594	1386	0.215553
41.1165	1388.1	0.21384
41.0741	1390.2	0.213765
41.0317	1392.3	0.213653
40.9892	1394.4	0.215068
40.9469	1396.5	0.214509
40.9038	1398.6	0.21326
40.8615	1400.7	0.21257
40.8191	1402.8	0.212253
40.7771	1404.9	0.212495
40.7348	1407	0.213351
40.6928	1409.1	0.213909
40.6501	1411.2	0.211729
40.6073	1413.3	0.210834
40.5646	1415.4	0.209995
40.5222	1417.5	0.209472
40.4797	1419.6	0.209583
40.4367	1421.7	0.209135
40.3938	1423.8	0.209284
40.3509	1425.9	0.208724
40.3083	1428	0.207641
40.2657	1430.1	0.208964
40.2235	1432.2	0.208777
40.1814	1434.3	0.208945
40.1395	1436.4	0.209149
40.0975	1438.5	0.207097
40.0548	1440.6	0.204652
40.0122	1442.7	0.204949
39.9698	1444.8	0.204687
39.9274	1446.9	0.203716
39.8851	1449	0.202072
39.8426	1451.1	0.204386
39.8003	1453.2	0.208399
39.7573	1455.3	0.210863
39.7146	1457.4	0.211086
39.6721	1459.5	0.209312
39.6295	1461.6	0.207724
39.587	1463.7	0.206267
39.5447	1465.8	0.205052
39.5023	1467.9	0.2055
39.4598	1470	0.2052
39.4177	1472.1	0.204845
39.3754	1474.2	0.203163
39.333	1476.3	0.201518
39.29	1478.4	0.202675
39.2471	1480.5	0.201647
39.2042	1482.6	0.200992
39.1617	1484.7	0.200916
39.1194	1486.8	0.199887
39.0772	1488.9	0.199269
39.035	1491	0.1991
38.993	1493.1	0.199024
38.9509	1495.2	0.199322
38.9081	1497.3	0.199134
38.8646	1499.4	0.19932
38.8217	1501.5	0.20089
38.7793	1503.6	0.198439
38.737	1505.7	0.197222
38.6945	1507.8	0.197034
38.652	1509.9	0.196584
38.6095	1512	0.198192
38.5672	1514.1	0.199763
38.5251	1516.2	0.201447
38.4826	1518.3	0.200566
38.4406	1520.4	0.19845
38.3979	1522.5	0.19581
38.3554	1524.6	0.195416
38.3127	1526.7	0.196594
38.2701	1528.8	0.196518
38.2274	1530.9	0.194757
38.1848	1533	0.195242
38.1428	1535.1	0.196066
38.1006	1537.2	0.195652
38.0581	1539.3	0.195165
38.0156	1541.4	0.195913
37.9729	1543.5	0.195181
37.9303	1545.6	0.19295
37.8877	1547.7	0.193942
37.8451	1549.8	0.193379
37.8029	1551.9	0.193696
37.7599	1554	0.19377
37.7176	1556.1	0.194463
37.675	1558.2	0.195587
37.6327	1560.3	0.196655
37.5904	1562.4	0.196298
37.5482	1564.5	0.195415
37.5059	1566.6	0.19412
37.4637	1568.7	0.193688
37.4211	1570.8	0.192223
37.3784	1572.9	0.19149
37.3358	1575	0.191002
37.2934	1577.1	0.188843
37.2505	1579.2	0.189667
37.2082	1581.3	0.189685
37.1655	1583.4	0.190622
37.1224	1585.5	0.194075
37.0797	1587.6	0.192929
37.0378	1589.7	0.191144
36.9955	1591.8	0.189697
36.9531	1593.9	0.187705
36.9105	1596	0.1877224
36.8683	1598.1	0.188209
36.8257	1600.2	0.188509
36.7829	1602.3	0.187945
36.7399	1604.4	0.186591
36.6974	1606.5	0.18471
36.6553	1608.6	0.182905
36.6133	1610.7	0.18559
36.5712	1612.8	0.18666
36.5278	1614.9	0.185775
36.4852	1617	0.185417
36.4425	1619.1	0.184964
36.3995	1621.2	0.185432
36.3571	1623.3	0.185694
36.3151	1625.4	0.185317
36.2732	1627.5	0.184902
36.2315	1629.6	0.185314
36.1895	1631.7	0.187401
36.1469	1633.8	0.186158
36.1037	1635.9	0.185235
36.0609	1638	0.185083
36.0185	1640.1	0.183859
35.9753	1642.2	0.183745
35.9328	1644.3	0.185437
35.8904	1646.4	0.184853
35.8484	1648.5	0.183948
35.8067	1650.6	0.183796
35.7646	1652.7	0.1821
35.7219	1654.8	0.181872
35.6794	1656.9	0.18317
35.6363	1659	0.182283
35.5938	1661.1	0.180624
35.551	1663.2	0.178381
35.5082	1665.3	0.177098
35.4658	1667.4	0.178208
35.4233	1669.5	0.178583
35.3813	1671.6	0.177073
35.3391	1673.7	0.176808
35.2967	1675.8	0.177466
35.2542	1677.9	0.178313
35.2116	1680	0.178217
35.1693	1682.1	0.178366
35.1268	1684.2	0.177647
35.0837	1686.3	0.176722
35.0412	1688.4	0.177701
34.9986	1690.5	0.179774
34.9564	1692.6	0.178584
34.9141	1694.7	0.177733
34.8721	1696.8	0.176317
34.8301	1698.9	0.1769
34.7878	1701	0.176558
34.745	1703.1	0.176708
34.702	1705.2	0.176668
34.6591	1707.3	0.176855
34.6163	1709.4	0.177873
34.5741	1711.5	0.178324
34.5315	1713.6	0.17668
34.4893	1715.7	0.177283
34.4471	1717.8	0.174562
34.4051	1719.9	0.175391
34.3628	1722	0.176183
34.3201	1724.1	0.174311
34.2773	1726.2	0.172741
34.2344	1728.3	0.17289
34.1924	1730.4	0.172378
34.1492	1732.5	0.172452
34.1071	1734.6	0.173527
34.0653	1736.7	0.172845
34.0223	1738.8	0.172938
33.9795	1740.9	0.172993
33.9372	1743	0.173539
33.8951	1745.1	0.173537
33.8532	1747.2	0.173706
33.8102	1749.3	0.173439
33.767	1751.4	0.172699
33.725	1753.5	0.171525
33.6825	1755.6	0.170861
33.6398	1757.7	0.169421
33.5974	1759.8	0.169381
33.5549	1761.9	0.169512
33.5125	1764	0.169964
33.4703	1766.1	0.170908
33.4278	1768.2	0.169543
33.3856	1770.3	0.169655
33.3427	1772.4	0.167797
33.2996	1774.5	0.166129
33.2568	1776.6	0.166581
33.2148	1778.7	0.166541
33.1725	1780.8	0.166103
33.1299	1782.9	0.165513
33.0878	1785	0.164242
33.0452	1787.1	0.163936
33.0022	1789.2	0.164597
32.9603	1791.3	0.165466
32.918	1793.4	0.165142
32.8751	1795.5	0.164211
32.8326	1797.6	0.1628052
32.7901	1799.7	0.16358
32.7479	1801.8	0.164336
32.7057	1803.9	0.164694
32.6632	1806	0.164559
32.6207	1808.1	0.163589
32.5788	1810.2	0.163264
32.536	1812.3	0.164704
32.4938	1814.4	0.163639
32.4507	1816.5	0.163675
32.408	1818.6	0.164697
32.3652	1820.7	0.166118
32.3232	1822.8	0.164446
32.2813	1824.9	0.162868
32.2386	1827	0.161062
32.1962	1829.1	0.160149
32.154	1831.2	0.1595
32.1115	1833.3	0.160124
32.0689	1835.4	0.161014
32.0261	1837.5	0.160043
31.9831	1839.6	0.158597
31.9406	1841.7	0.157341
31.8983	1843.8	0.158079
31.8557	1845.9	0.159938
31.8134	1848	0.160315
31.7711	1850.1	0.16075
31.7288	1852.2	0.160767
31.6865	1854.3	0.159491
31.6442	1856.4	0.159621
31.6018	1858.5	0.158877
31.5588	1860.6	0.157905
31.5159	1862.7	0.15832
31.4729	1864.8	0.159782
31.4305	1866.9	0.158581
31.3883	1869	0.157342
31.3463	1871.1	0.156749
31.3042	1873.2	0.157546
31.2614	1875.3	0.156992
31.2193	1877.4	0.157027
31.1771	1879.5	0.155806
31.1343	1881.6	0.155518
31.0915	1883.7	0.155001
31.0489	1885.8	0.154922
31.0067	1887.9	0.154767
30.9641	1890	0.152917
30.9216	1892.1	0.151847
30.8793	1894.2	0.152853
30.837	1896.3	0.153289
30.7948	1898.4	0.152524
30.752	1900.5	0.152502
30.71	1902.6	0.153528
30.6672	1904.7	0.154497
30.6248	1906.8	0.152435
30.5824	1908.9	0.152108
30.5402	1911	0.152581
30.4984	1913.1	0.151339
30.4557	1915.2	0.150669
30.4127	1917.3	0.151943
30.3697	1919.4	0.150739
30.3271	1921.5	0.149496
30.2845	1923.6	0.148367
30.2426	1925.7	0.148268
30.1998	1927.8	0.148208
30.1573	1929.9	0.148739
30.1145	1932	0.149308
30.0725	1934.1	0.14795
30.0297	1936.2	0.147259
29.9877	1938.3	0.147599
29.9448	1940.4	0.146718
29.9024	1942.5	0.145454
29.86	1944.6	0.145985
29.8183	1946.7	0.147548
29.7765	1948.8	0.147468
29.7344	1950.9	0.1464331
29.6922	1953	0.14578
29.6486	1955.1	0.144611
29.6057	1957.2	0.144951
29.563	1959.3	0.145253
29.5201	1961.4	0.145288
29.4776	1963.5	0.145476
29.4354	1965.6	0.145415
29.393	1967.7	0.145526
29.3509	1969.8	0.144108
29.3086	1971.9	0.143014
29.2666	1974	0.144827
29.224	1976.1	0.144001
29.1815	1978.2	0.142563
29.139	1980.3	0.140283
29.0961	1982.4	0.141561
29.0537	1984.5	0.142341
29.0117	1986.6	0.141323
28.9689	1988.7	0.139195
28.9261	1990.8	0.13766
28.8837	1992.9	0.138287
28.8412	1995	0.138762
28.7994	1997.1	0.139274
28.7569	1999.2	0.139902
28.7143	2001.3	0.139037
28.6714	2003.4	0.138516
28.6289	2005.5	0.139297
28.5863	2007.6	0.139715
28.5436	2009.7	0.138829
28.5017	2011.8	0.13804
28.4594	2013.9	0.137231
28.4172	2016	0.136517
28.3748	2018.1	0.136225
28.3319	2020.2	0.135818
28.2896	2022.3	0.135776
28.2472	2024.4	0.135733
28.2051	2026.5	0.135135
28.1631	2028.6	0.133308
28.1204	2030.7	0.132958
28.0777	2032.8	0.132935
28.0348	2034.9	0.134561
27.9919	2037	0.134115
27.949	2039.1	0.134188
27.9069	2041.2	0.134452
27.8648	2043.3	0.135561
27.8231	2045.4	0.134443
27.7803	2047.5	0.132404
27.7376	2049.6	0.132418
27.6954	2051.7	0.131262
27.6529	2053.8	0.130854
27.6104	2055.9	0.132328
27.5676	2058	0.130153
27.5254	2060.1	0.128688
27.4827	2062.2	0.128529
27.4402	2064.3	0.129485
27.3976	2066.4	0.130845
27.3548	2068.5	0.131224
27.3125	2070.6	0.130374
27.2702	2072.7	0.130043
27.2278	2074.8	0.129769
27.1851	2076.9	0.130418
27.1426	2079	0.129394
27.1001	2081.1	0.127774
27.0578	2083.2	0.12825
27.0159	2085.3	0.128091
26.9734	2087.4	0.128105
26.9311	2089.5	0.129601
26.8891	2091.6	0.129096
26.8466	2093.7	0.127648
26.8043	2095.8	0.127374
26.7614	2097.9	0.127292
26.7188	2100	0.126401
26.6765	2102.1	0.126666
26.6337	2104.2	0.127123
26.5913	2106.3	0.125828
26.549	2108.4	0.1238
26.5067	2110.5	0.123236
26.4645	2112.6	0.123847
26.4223	2114.7	0.124574
26.3798	2116.8	0.124569
26.3373	2118.9	0.124583
26.2946	2121	0.12319
26.2519	2123.1	0.121334
26.2096	2125.2	0.121059
26.1671	2127.3	0.120976
26.1248	2129.4	0.122339
26.0819	2131.5	0.12272
26.0392	2133.6	0.122946
25.9963	2135.7	0.123172
25.954	2137.8	0.122318
25.9123	2139.9	0.120557
25.8706	2142	0.120012
25.8283	2144.1	0.120778
25.7856	2146.2	0.12193
25.7431	2148.3	0.121114
25.6999	2150.4	0.120452
25.6571	2152.5	0.121335
25.6147	2154.6	0.11992
25.5723	2156.7	0.118814
25.5299	2158.8	0.117862
25.4877	2160.9	0.117431
25.4452	2163	0.116633
25.4028	2165.1	0.117226
25.3599	2167.2	0.11666
25.3179	2169.3	0.115746
25.2758	2171.4	0.115122
25.2332	2173.5	0.114787
25.1912	2175.6	0.114974
25.1488	2177.7	0.114136
25.1062	2179.8	0.112545
25.0637	2181.9	0.112886
25.0211	2184	0.113189
24.9782	2186.1	0.112274
24.9356	2188.2	0.112326
24.8927	2190.3	0.114215
24.8502	2192.4	0.112855
24.8085	2194.5	0.113216
24.7667	2196.6	0.113655
24.7242	2198.7	0.112836
24.6819	2200.8	0.112811
24.6398	2202.9	0.111333
24.5972	2205	0.109817
24.5545	2207.1	0.109965
24.5116	2209.2	0.110888
24.4691	2211.3	0.109855
24.4268	2213.4	0.108841
24.3848	2215.5	0.107885
24.343	2217.6	0.109429
24.3003	2219.7	0.111185
24.2577	2221.8	0.10928
24.2153	2223.9	0.108788
24.1721	2226	0.107754
24.1296	2228.1	0.10767
24.0873	2230.2	0.108264
24.0449	2232.3	0.10721
24.0027	2234.4	0.106893
23.9597	2236.5	0.107313
23.9174	2238.6	0.106375
23.8749	2240.7	0.107998
23.8327	2242.8	0.108864
23.7905	2244.9	0.108392
23.7478	2247	0.106387
23.7056	2249.1	0.105429
23.663	2251.2	0.105305
23.6208	2253.3	0.103803
23.5782	2255.4	0.103175
23.5359	2257.5	0.103478
23.4932	2259.6	0.102131
23.4505	2261.7	0.102881
23.4081	2263.8	0.103612
23.3658	2265.9	0.102847
23.3239	2268	0.102043
23.2812	2270.1	0.101472
23.239	2272.2	0.101582
23.1966	2274.3	0.101963
23.1543	2276.4	0.101373
23.1118	2278.5	0.10084
23.0692	2280.6	0.0994913
23.0268	2282.7	0.0980447
22.9845	2284.8	0.09720064
22.9424	2286.9	0.0979901
22.8998	2289	0.0989355
22.8567	2291.1	0.10027
22.8145	2293.2	0.100399
22.772	2295.3	0.0986402
22.7303	2297.4	0.0979903
22.688	2299.5	0.0978268
22.6455	2301.6	0.0964759
22.6027	2303.7	0.0970716
22.5595	2305.8	0.0979011
22.5169	2307.9	0.0970949
22.4749	2310	0.09675581
22.4332	2312.1	0.09766338
22.3908	2314.2	0.097753
22.3485	2316.3	0.096206
22.3065	2318.4	0.0955549
22.2643	2320.5	0.0959951
22.2218	2322.6	0.0970007
22.1793	2324.7	0.0962523
22.1363	2326.8	0.0956596
22.0934	2328.9	0.0959831
22.0515	2331	0.0955853
22.0092	2333.1	0.0944073
21.9672	2335.2	0.0936384
21.9249	2337.3	0.0931621
21.8827	2339.4	0.0932905
21.8402	2341.5	0.0937505
21.7977	2343.6	0.0937422
21.7553	2345.7	0.0916848
21.7121	2347.8	0.0912078
21.6698	2349.9	0.0921755
21.6277	2352	0.09212824
21.5852	2354.1	0.0910266
21.5427	2356.2	0.0911745
21.5001	2358.3	0.0900724
21.4574	2360.4	0.0902201
21.4146	2362.5	0.0908951
21.3722	2364.6	0.0893625
21.3301	2366.7	0.0894904
21.2874	2368.8	0.0894037
21.2448	2370.9	0.0868348
21.2027	2373	0.0870213
21.1605	2375.1	0.0869537
21.1182	2377.2	0.087375
21.0761	2379.3	0.087073
21.0341	2381.4	0.0872011
20.9915	2383.5	0.0877789
20.9491	2385.6	0.0870854
20.907	2387.7	0.0858243
20.8638	2389.8	0.0838586
20.8209	2391.9	0.0837124
20.779	2394	0.08475998
20.7369	2396.1	0.0851228
20.6944	2398.2	0.0845656
20.6519	2400.3	0.0831468
20.6092	2402.4	0.0830398
20.5665	2404.5	0.0828151
20.524	2406.6	0.0817089
20.482	2408.7	0.0807591
20.4398	2410.8	0.0808866
20.3978	2412.9	0.08213082
20.3553	2415	0.0824348
20.3128	2417.1	0.0819746
20.2706	2419.2	0.0800248
20.2286	2421.3	0.0787998
20.1855	2423.4	0.0799857
20.143	2425.5	0.0803485
20.1006	2427.6	0.0795351
20.0583	2429.7	0.0796038
20.0159	2431.8	0.08028052
19.9738	2433.9	0.0794666
19.9319	2436	0.0777106
19.8895	2438.1	0.0780539
19.8465	2440.2	0.0775535
19.8036	2442.3	0.0766016
19.761	2444.4	0.0767092
19.719	2446.5	0.0753447
19.6766	2448.6	0.0736066
19.6348	2450.7	0.073655
19.5921	2452.8	0.0731731
19.5497	2454.9	0.073516
19.5076	2457	0.0738788
19.4655	2459.1	0.0743399
19.4226	2461.2	0.0745063
19.3801	2463.3	0.0745549
19.3381	2465.4	0.0763723
19.2957	2467.5	0.0759889
19.2529	2469.6	0.075212
19.2105	2471.7	0.0744153
19.1682	2473.8	0.0744836
19.126	2475.9	0.0738834
19.0838	2478	0.07300768
19.0415	2480.1	0.07299725
18.9988	2482.2	0.0709213
18.9558	2484.3	0.0695331
18.9133	2486.4	0.0703684
18.8705	2488.5	0.0714595
18.8278	2490.6	0.0717441
18.7857	2492.7	0.0711626
18.744	2494.8	0.0713292
18.7023	2496.9	0.070905
18.66	2499	0.0704215
18.6174	2501.1	0.0707062
18.5751	2503.2	0.0691393
18.5327	2505.3	0.068498
18.4899	2507.4	0.0695115
18.4476	2509.5	0.0685744
18.405	2511.6	0.0676765
18.3633	2513.7	0.06681782
18.3214	2515.8	0.0675161
18.2784	2517.9	0.0675049
18.2359	2520	0.0670206
18.1934	2522.1	0.0652543
18.1511	2524.2	0.0638425
18.1091	2526.3	0.064107
18.0667	2528.4	0.0634839
18.0246	2530.5	0.0630185
17.982	2532.6	0.0622175
17.9397	2534.7	0.0617123
17.8974	2536.8	0.061424
17.855	2538.9	0.0614713
17.8138	2541	0.0619727
17.7714	2543.1	0.0624151
17.7291	2545.2	0.0611789
17.686	2547.3	0.0607719
17.6431	2549.4	0.0624389
17.5999	2551.5	0.0626644
17.5575	2553.6	0.0609535
17.5152	2555.7	0.0604278
17.4723	2557.8	0.05954618
17.4299	2559.9	0.0578738
17.3874	2562	0.05788118
17.3461	2564.1	0.058798
17.304	2566.2	0.0588255
17.2619	2568.3	0.0580419
17.2195	2570.4	0.05656584
17.1775	2572.5	0.0564544
17.1355	2574.6	0.0564419
17.0932	2576.7	0.05728022
17.0508	2578.8	0.0579407
17.0078	2580.9	0.055969
16.9651	2583	0.0550655
16.9223	2585.1	0.0550529
16.8802	2587.2	0.0551194
16.8383	2589.3	0.0557008
16.7963	2591.4	0.0542624
16.7538	2593.5	0.0530018
16.7118	2595.6	0.0530482
16.6692	2597.7	0.0539665
16.6268	2599.8	0.0552218
16.5842	2601.9	0.05511
16.5418	2604	0.0541261
16.4991	2606.1	0.0528646
16.4567	2608.2	0.0520387
16.4145	2610.3	0.0517481
16.3724	2612.4	0.0511797
16.3299	2614.5	0.0518805
16.2874	2616.6	0.05224422
16.2453	2618.7	0.0521518
16.2029	2620.8	0.0513849
16.1609	2622.9	0.0510542
16.1188	2625	0.0502472
16.0764	2627.1	0.050353
16.0336	2629.2	0.049764
15.9909	2631.3	0.0497704
15.949	2633.4	0.0489629
15.9064	2635.5	0.0481551
15.8643	2637.6	0.048638
15.8228	2639.7	0.04781
15.7803	2641.8	0.0465648
15.7383	2643.9	0.04482251
15.6958	2646	0.0446893
15.654	2648.1	0.0450329
15.6118	2650.2	0.0448002
15.5695	2652.3	0.0441104
15.5269	2654.4	0.0441361
15.4842	2656.5	0.0433266
15.4414	2658.6	0.0432527
15.3994	2660.7	0.0432186
15.3572	2662.8	0.042528
15.3143	2664.9	0.041161
15.2725	2667	0.0400323
15.2304	2669.1	0.0408933
15.1886	2671.2	0.0419933
15.1459	2673.3	0.0416007
15.1029	2675.4	0.04077
15.0608	2677.5	0.0396405
15.018	2679.6	0.0385505
14.9757	2681.7	0.039412
14.9333	2683.8	0.0395765
14.8914	2685.9	0.0388646
14.8494	2688	0.0386107
14.8076	2690.1	0.0384962
14.765	2692.2	0.0382223
14.7227	2694.3	0.0384267
14.6809	2696.4	0.0384517
14.6385	2698.5	0.0373205
14.5965	2700.6	0.03594958
14.5536	2702.7	0.0348376
14.5115	2704.8	0.0340444
14.4689	2706.9	0.0348068
14.4265	2709	0.0338538
14.3847	2711.1	0.0338783
14.3422	2713.2	0.03472086
14.2999	2715.3	0.034885
14.2574	2717.4	0.0356482
14.2152	2719.5	0.0354333
14.1727	2721.6	0.0347393
14.1307	2723.7	0.0330067
14.0887	2725.8	0.0329911
14.0466	2727.9	0.0329555
14.0048	2730	0.0328601
13.9623	2732.1	0.0328245
13.9192	2734.2	0.0325492
13.8776	2736.3	0.0301954
13.8357	2738.4	0.0291202
13.7935	2740.5	0.0293239
13.7508	2742.6	0.0285281
13.7087	2744.7	0.0286719
13.6665	2746.8	0.0291556
13.6244	2748.9	0.0291195
13.5818	2751	0.0290233
13.5393	2753.1	0.0286471
13.4974	2755.2	0.0267903
13.4553	2757.3	0.0270139
13.4133	2759.4	0.0273777
13.3714	2761.5	0.0274414
13.3292	2763.6	0.027345
13.2866	2765.7	0.0268282
13.2446	2767.8	0.027032
13.2022	2769.9	0.0272759
13.1596	2772	0.0261579
13.1171	2774.1	0.0260613
13.0753	2776.2	0.0266458
13.0331	2778.3	0.0263087
12.9915	2780.4	0.0261318
12.9495	2782.5	0.0246722
12.9068	2784.6	0.0243949
12.865	2786.7	0.02457854
12.8232	2788.8	0.0237798
12.7811	2790.9	0.0225197
12.7396	2793	0.0217807
12.6979	2795.1	0.0218839
12.6553	2797.2	0.0219671
12.6132	2799.3	0.0221907
12.5705	2801.4	0.0226552
12.5283	2803.5	0.0232001
12.4867	2805.6	0.02262116
12.445	2807.7	0.0221624
12.4032	2809.8	0.02152295
12.361	2811.9	0.0217066
12.3182	2814	0.0212475
12.2761	2816.1	0.0211901
12.2339	2818.2	0.0208917
12.1918	2820.3	0.0209146
12.1502	2822.4	0.0205959
12.1077	2824.5	0.02005606
12.0656	2826.6	0.0206215
12.0234	2828.7	0.0208253
11.9811	2830.8	0.0197224
11.9394	2832.9	0.0198658
11.8975	2835	0.0199087
11.8552	2837.1	0.019127
11.8135	2839.2	0.0187675
11.7714	2841.3	0.0181464
11.7291	2843.4	0.0176659
11.6865	2845.5	0.01815125
11.6449	2847.6	0.0183147
11.603	2849.7	0.0172101
11.5609	2851.8	0.0164474
11.519	2853.9	0.0172952
11.4772	2856	0.01715659
11.4352	2858.1	0.0172797
11.3935	2860.2	0.0172015
11.3522	2862.3	0.0167404
11.3098	2864.4	0.0171859
11.2678	2866.5	0.0169263
11.2255	2868.6	0.0168077
11.1832	2870.7	0.0166084
11.1413	2872.8	0.0165905
11.0995	2874.9	0.0176411
11.0576	2877	0.0177845
11.0162	2879.1	0.0175248
10.9754	2881.2	0.0174263
10.9327	2883.3	0.01714622
10.8909	2885.4	0.0179152
10.8491	2887.5	0.0185835
10.8071	2889.6	0.019373
10.7648	2891.7	0.0193151
10.7232	2893.8	0.0179047
10.6814	2895.9	0.01707934
10.6397	2898	0.0172028
10.5976	2900.1	0.0160136
10.5557	2902.2	0.0166418
10.5137	2904.3	0.0174116
10.4722	2906.4	0.0182019
10.4302	2908.5	0.0178608
10.3886	2910.6	0.01756008
10.347	2912.7	0.0176837
10.3046	2914.8	0.017969
10.2625	2916.9	0.0174256
10.2207	2919	0.0168415
10.1785	2921.1	0.0180368
10.1371	2923.2	0.01876724
10.0958	2925.3	0.0186686
10.0533	2927.4	0.0183069
10.0113	2929.5	0.0183498
9.96905	2931.6	0.0185546
9.92763	2933.7	0.0186178
9.88617	2935.8	0.0196322
9.84422	2937.9	0.020404
9.80275	2940	0.0190503
9.76045	2942.1	0.0197209
9.71865	2944.2	0.020979
9.6771	2946.3	0.0219133
9.63644	2948.4	0.0222807
9.595	2950.5	0.022547
9.55397	2952.6	0.022246
9.51216	2954.7	0.0208304
9.4703	2956.8	0.0231028
9.42841	2958.9	0.0243828
9.38702	2961	0.0237778
9.34509	2963.1	0.02442963
9.30355	2965.2	0.0260751
9.26209	2967.3	0.026991
9.22035	2969.4	0.0269133
9.17915	2971.5	0.027444
9.13806	2973.6	0.0270012
9.09629	2975.7	0.0274104
9.05476	2977.8	0.0286719
9.01354	2979.9	0.03064399
8.972	2982	0.0325151
8.93074	2984.1	0.0334326
8.88984	2986.2	0.0343503
8.84801	2988.3	0.034659
8.80629	2990.4	0.0356581
8.76522	2992.5	0.0377134
8.72391	2994.6	0.0380225
8.68205	2996.7	0.03904257
8.64071	2998.8	0.0412818
8.62687	2999.5	0.0416288