File: rawdata/empty_7
empty
Furnace temperature 	Time	HeatFlow
/°C	/s	/mW
64.8078	0	-0.188576
64.9391	2.1	-0.188809
65.2647	4.2	-0.19021
65.7274	6.3	-0.193877
66.263	8.4	-0.198731
66.7779	10.5	-0.207558
67.2141	12.6	-0.220878
67.5375	14.7	-0.239303
67.7417	16.8	-0.261161
67.8468	18.9	-0.286343
67.8794	21	-0.313755
67.8731	23.1	-0.341975
67.8532	25.2	-0.370501
67.836	27.3	-0.399442
67.8305	29.4	-0.427324
67.8337	31.5	-0.455136
67.8418	33.6	-0.483058
67.8499	35.7	-0.511988
67.8529	37.8	-0.539517
67.8484	39.9	-0.567426
67.8377	42	-0.594976
67.8214	44.1	-0.621394
67.8027	46.2	-0.647041
67.7821	48.3	-0.671628
67.7608	50.4	-0.695892
67.739	52.5	-0.718918
67.7179	54.6	-0.740381
67.6946	56.7	-0.759562
67.67	58.8	-0.778277
67.6444	60.9	-0.79622
67.6178	63	-0.811898
67.5897	65.1	-0.82675
67.5605	67.2	-0.840002
67.5311	69.3	-0.853526
67.5013	71.4	-0.864316
67.4715	73.5	-0.873634
67.4412	75.6	-0.882898
67.4102	77.7	-0.889771
67.3782	79.8	-0.895008
67.3455	81.9	-0.899131
67.312	84	-0.902643
67.2779	86.1	-0.907396
67.2436	88.2	-0.910441
67.2093	90.3	-0.910573
67.1743	92.4	-0.910543
67.1395	94.5	-0.90929
67.1043	96.6	-0.906796
67.0688	98.7	-0.903276
67.0328	100.8	-0.899451
66.9962	102.9	-0.894096
66.9595	105	-0.888058
66.9227	107.1	-0.881336
66.8856	109.2	-0.873661
66.8481	111.3	-0.865948
66.8106	113.4	-0.855807
66.7728	115.5	-0.845882
66.7349	117.6	-0.837395
66.697	119.7	-0.827739
66.6585	121.8	-0.817074
66.62	123.9	-0.803369
66.5812	126	-0.790742
66.5423	128.1	-0.779482
66.5032	130.2	-0.766405
66.464	132.3	-0.753578
66.4247	134.4	-0.740841
66.3853	136.5	-0.72742
66.3456	138.6	-0.712702
66.306	140.7	-0.697515
66.2662	142.8	-0.685495
66.2263	144.9	-0.672664
66.1863	147	-0.657655
66.1461	149.1	-0.64054
66.1058	151.2	-0.626232
66.0655	153.3	-0.612139
66.025	155.4	-0.59781
65.9845	157.5	-0.584094
65.9439	159.6	-0.56899
65.9032	161.7	-0.552193
65.8984	163.8	-0.536242
65.9061	165.9	-0.521622
65.9013	168	-0.507901
65.88	170.1	-0.493225
65.8432	172.2	-0.479917
65.7952	174.3	-0.466122
65.743	176.4	-0.4504
65.6917	178.5	-0.434154
65.6457	180.6	-0.418196
65.6059	182.7	-0.404289
65.5712	184.8	-0.391102
65.5392	186.9	-0.377176
65.5074	189	-0.363303
65.4726	191.1	-0.348637
65.4349	193.2	-0.333862
65.3943	195.3	-0.320995
65.3513	197.4	-0.308524
65.3084	199.5	-0.295079
65.2655	201.6	-0.282444
65.2235	203.7	-0.268853
65.1828	205.8	-0.254415
65.1423	207.9	-0.241454
65.1021	210	-0.227446
65.061	212.1	-0.214177
65.0198	214.2	-0.203374
64.9778	216.3	-0.191833
64.9354	218.4	-0.181209
64.893	220.5	-0.17127
64.8508	222.6	-0.161149
64.8084	224.7	-0.149191
64.766	226.8	-0.137087
64.7242	228.9	-0.124099
64.6819	231	-0.11403
64.6392	233.1	-0.10324
64.5961	235.2	-0.0937821
64.5527	237.3	-0.0839273
64.5091	239.4	-0.0738375
64.4658	241.5	-0.0637111
64.4226	243.6	-0.05381833
64.3801	245.7	-0.0436004
64.3371	247.8	-0.0371671
64.2946	249.9	-0.0308053
64.2513	252	-0.0224423
64.2084	254.1	-0.0142049
64.1648	256.2	-0.00661598
64.1209	258.3	0.001784753
64.0772	260.4	0.0104925
64.0335	262.5	0.0202286
63.9905	264.6	0.02987517
63.9469	266.7	0.0377555
63.9035	268.8	0.0429857
63.8598	270.9	0.0486671
63.8165	273	0.0564767
63.7728	275.1	0.063277
63.7295	277.2	0.07047461
63.6854	279.3	0.0782137
63.6413	281.4	0.084691
63.5974	283.5	0.0887339
63.5539	285.6	0.09495943
63.5102	287.7	0.102087
63.4667	289.8	0.106618
63.4235	291.9	0.112953
63.3799	294	0.120822
63.336	296.1	0.128186
63.2922	298.2	0.132611
63.2486	300.3	0.136133
63.2048	302.4	0.142651
63.1607	304.5	0.147401
63.1166	306.6	0.153523
63.0723	308.7	0.157913
63.0285	310.8	0.161853
62.9851	312.9	0.165323
62.9414	315	0.169913
62.8981	317.1	0.173384
62.855	319.2	0.177288
62.8115	321.3	0.182763
62.7674	323.4	0.184502
62.7234	325.5	0.187144
62.6798	327.6	0.192277
62.6356	329.7	0.195804
62.5916	331.8	0.200342
62.5475	333.9	0.204411
62.5042	336	0.207668
62.4606	338.1	0.210456
62.4178	340.2	0.214995
62.3746	342.3	0.21921
62.3308	344.4	0.223209
62.2869	346.5	0.227063
62.2428	348.6	0.229401
62.1991	350.7	0.229951
62.1544	352.8	0.232903
62.1114	354.9	0.232262
62.0677	357	0.232777
62.0248	359.1	0.236669
61.9815	361.2	0.240055
61.938	363.3	0.243496
61.8942	365.4	0.246883
61.8507	367.5	0.250559
61.807	369.6	0.253297
61.7634	371.7	0.252404
61.7194	373.8	0.252739
61.6758	375.9	0.25405
61.6322	378	0.256137
61.5895	380.1	0.254612
61.5457	382.2	0.253935
61.5027	384.3	0.258571
61.4595	386.4	0.262592
61.416	388.5	0.266488
61.373	390.6	0.268577
61.329	392.7	0.268172
61.285	394.8	0.269466
61.2415	396.9	0.27188
61.1981	399	0.27594
61.1548	401.1	0.278897
61.1118	403.2	0.280824
61.0689	405.3	0.282842
61.0258	407.4	0.285041
60.9823	409.5	0.283878
60.9387	411.6	0.28416
60.8952	413.7	0.284787
60.852	415.8	0.286028
60.8084	417.9	0.289403
60.7651	420	0.292145
60.722	422.1	0.292067
60.6785	424.2	0.29235
60.6349	426.3	0.293031
60.5917	428.4	0.294219
60.5488	430.5	0.29566
60.506	432.6	0.297083
60.4629	434.7	0.298398
60.4197	436.8	0.297199
60.3765	438.9	0.295783
60.3329	441	0.296736
60.2895	443.1	0.298015
60.2461	445.2	0.298353
60.2027	447.3	0.297389
60.1595	449.4	0.296877
60.1164	451.5	0.296456
60.0735	453.6	0.297735
60.0303	455.7	0.300986
59.9879	457.8	0.303098
59.9451	459.9	0.30626
59.902	462	0.308608
59.8584	464.1	0.308567
59.8144	466.2	0.307459
59.771	468.3	0.306115
59.7279	470.4	0.305948
59.6854	472.5	0.307011
59.6426	474.6	0.309522
59.5999	476.7	0.310079
59.5569	478.8	0.308209
59.5137	480.9	0.308205
59.4707	483	0.307296
59.4278	485.1	0.306042
59.3843	487.2	0.307161
59.3411	489.3	0.306685
59.2976	491.4	0.306337
59.255	493.5	0.308995
59.2123	495.6	0.312051
59.1699	497.7	0.311576
59.1268	499.8	0.311879
59.084	501.9	0.312419
59.041	504	0.311582
58.9977	506.1	0.313063
58.9549	508.2	0.313657
58.912	510.3	0.313962
58.8688	512.4	0.317001
58.8257	514.5	0.316436
58.7827	516.6	0.3127
58.7395	518.7	0.31016
58.697	520.8	0.310537
58.6543	522.9	0.312508
58.6114	525	0.313791
58.568	527.1	0.313516
58.5249	529.2	0.312588
58.4821	531.3	0.312403
58.4396	533.4	0.310062
58.3969	535.5	0.309134
58.354	537.6	0.310689
58.3117	539.7	0.312806
58.2692	541.8	0.308561
58.2265	543.9	0.30602
58.1839	546	0.305635
58.1406	548.1	0.308333
58.0971	550.2	0.309037
58.0538	552.3	0.308906
58.0111	554.4	0.3099
57.9683	556.5	0.311892
57.926	558.6	0.311363
57.8825	560.7	0.311704
57.8403	562.8	0.311683
57.7977	564.9	0.310447
57.7552	567	0.311368
57.7126	569.1	0.312744
57.6694	571.2	0.314319
57.6264	573.3	0.314606
57.5833	575.4	0.313171
57.5406	577.5	0.310737
57.4976	579.6	0.308611
57.4545	581.7	0.309824
57.4121	583.8	0.312271
57.3699	585.9	0.311506
57.3274	588	0.30938
57.2847	590.1	0.309177
57.2421	592.2	0.310717
57.1992	594.3	0.310151
57.1562	596.4	0.309259
57.113	598.5	0.309529
57.07	600.6	0.310289
57.0271	602.7	0.311012
56.9844	604.8	0.311518
56.942	606.9	0.312605
56.8998	609	0.313401
56.8573	611.1	0.312345
56.8145	613.2	0.311453
56.7718	615.3	0.310525
56.7291	617.4	0.308997
56.6857	619.5	0.309685
56.6433	621.6	0.309265
56.6002	623.7	0.308972
56.5578	625.8	0.309114
56.515	627.9	0.310602
56.4724	630	0.310254
56.4303	632.1	0.309035
56.3877	634.2	0.30747
56.3453	636.3	0.305778
56.3022	638.4	0.307884
56.2592	640.5	0.310044
56.216	642.6	0.307153
56.1734	644.7	0.307278
56.1307	646.8	0.307075
56.0876	648.9	0.30502
56.0451	651	0.304417
56.003	653.1	0.306215
55.9611	655.2	0.306339
55.9186	657.3	0.30601
55.8757	659.4	0.307172
55.8329	661.5	0.30877
55.7892	663.6	0.30795
55.747	665.7	0.305639
55.7042	667.8	0.305037
55.662	669.9	0.306126
55.6193	672	0.304978
55.5772	674.1	0.305285
55.5346	676.2	0.306393
55.4921	678.3	0.307555
55.4491	680.4	0.30859
55.4061	682.5	0.303459
55.3629	684.6	0.298292
55.3205	686.7	0.298198
55.2779	688.8	0.299106
55.2352	690.9	0.298831
55.1922	693	0.301485
55.15	695.1	0.304049
55.1077	697.2	0.304138
55.0652	699.3	0.304518
55.0229	701.4	0.304316
54.9803	703.5	0.302258
54.9375	705.6	0.299982
54.8945	707.7	0.301928
54.8519	709.8	0.301726
54.8088	711.9	0.299267
54.7662	714	0.296189
54.7238	716.1	0.298189
54.6812	718.2	0.300882
54.6392	720.3	0.299369
54.5965	722.4	0.297984
54.554	724.5	0.29638
54.5111	726.6	0.296014
54.4683	728.7	0.298161
54.4252	730.8	0.297267
54.3829	732.9	0.296519
54.3404	735	0.296863
54.2981	737.1	0.297427
54.256	739.2	0.29799
54.2132	741.3	0.298681
54.1709	743.4	0.299426
54.128	745.5	0.300718
54.0853	747.6	0.302357
54.0426	749.7	0.300752
53.9999	751.8	0.298109
53.9568	753.9	0.29758
53.9138	756	0.297268
53.8715	758.1	0.295171
53.8292	760.2	0.293712
53.787	762.3	0.290867
53.7443	764.4	0.290829
53.7022	766.5	0.293507
53.6597	768.6	0.293724
53.6174	770.7	0.292575
53.575	772.8	0.294743
53.5319	774.9	0.295636
53.4894	777	0.295762
53.4466	779.1	0.295141
53.4038	781.2	0.293462
53.3607	783.3	0.291035
53.3183	785.4	0.290541
53.2761	787.5	0.291561
53.2338	789.6	0.290265
53.1914	791.7	0.289863
53.1487	793.8	0.290628
53.1053	795.9	0.290189
53.0626	798	0.287816
53.0198	800.1	0.28849
52.9775	802.2	0.289164
52.9349	804.3	0.289418
52.893	806.4	0.289289
52.8511	808.5	0.288594
52.8085	810.6	0.288082
52.7655	812.7	0.289176
52.7227	814.8	0.289613
52.6802	816.9	0.288809
52.6379	819	0.288863
52.5956	821.1	0.286544
52.5533	823.2	0.285393
52.5107	825.3	0.28561
52.4683	827.4	0.285189
52.4257	829.5	0.286101
52.3829	831.6	0.285716
52.3395	833.7	0.284601
52.2968	835.8	0.284966
52.2538	837.9	0.283138
52.2113	840	0.28248
52.169	842.1	0.284105
52.1268	844.2	0.284962
52.0844	846.3	0.283682
52.0421	848.4	0.282475
52.0002	850.5	0.282895
51.9571	852.6	0.283387
51.9149	854.7	0.282546
51.8722	856.8	0.281449
51.8295	858.9	0.281539
51.7867	861	0.281483
51.744	863.1	0.281336
51.7011	865.2	0.281774
51.659	867.3	0.282102
51.617	869.4	0.2819
51.5747	871.5	0.281826
51.5324	873.6	0.280948
51.4904	875.7	0.279356
51.4473	877.8	0.282994
51.4039	879.9	0.285372
51.3611	882	0.283085
51.3182	884.1	0.280927
51.2764	886.2	0.280084
51.2341	888.3	0.280102
51.1919	890.4	0.281747
51.1491	892.5	0.281198
51.1066	894.6	0.280411
51.0639	896.7	0.27977
51.021	898.8	0.279971
50.9787	900.9	0.279952
50.9364	903	0.277902
50.8942	905.1	0.278706
50.8521	907.2	0.278212
50.8094	909.3	0.279767
50.7668	911.4	0.278174
50.7242	913.5	0.275867
50.6816	915.6	0.275994
50.6388	917.7	0.274859
50.5962	919.8	0.275407
50.5536	921.9	0.275883
50.5111	924	0.275845
50.4686	926.1	0.277713
50.4259	928.2	0.277072
50.3835	930.3	0.276265
50.3409	932.4	0.274616
50.2989	934.5	0.273297
50.2563	936.6	0.273443
50.2144	938.7	0.274762
50.1718	940.8	0.276337
50.1292	942.9	0.274779
50.086	945	0.273075
50.0434	947.1	0.271627
50.0005	949.2	0.270362
49.9577	951.3	0.2700679
49.9152	953.4	0.269554
49.8725	955.5	0.2686
49.8302	957.6	0.271973
49.7883	959.7	0.271991
49.746	961.8	0.272009
49.7036	963.9	0.271807
49.6608	966	0.272393
49.6183	968.1	0.270541
49.5762	970.2	0.2698434
49.5337	972.3	0.270742
49.4908	974.4	0.271439
49.4479	976.5	0.271622
49.4049	978.6	0.270851
49.3625	980.7	0.269053
49.3204	982.8	0.269328
49.2784	984.9	0.269896
49.2359	987	0.269456
49.1931	989.1	0.269584
49.1507	991.2	0.270446
49.1082	993.3	0.271126
49.0656	995.4	0.267694
49.0228	997.5	0.265711
48.98	999.6	0.264408
48.9379	1001.7	0.265215
48.8949	1003.8	0.266132
48.8523	1005.9	0.264498
48.8102	1008	0.264571
48.7678	1010.1	0.265103
48.7253	1012.2	0.264662
48.6829	1014.3	0.26468
48.64	1016.4	0.26266
48.5973	1018.5	0.261502
48.5549	1020.6	0.261263
48.5126	1022.7	0.264551
48.4697	1024.8	0.265047
48.4272	1026.9	0.264698
48.3848	1029	0.264716
48.343	1031.1	0.263577
48.3002	1033.2	0.262272
48.2577	1035.3	0.260967
48.2152	1037.4	0.262584
48.1722	1039.5	0.264055
48.1302	1041.6	0.262603
48.0879	1043.7	0.258724
48.0457	1045.8	0.257823
48.003	1047.9	0.255763
47.9603	1050	0.253096
47.9177	1052.1	0.253353
47.8746	1054.2	0.255982
47.8323	1056.3	0.256331
47.7899	1058.4	0.256239
47.7474	1060.5	0.254712
47.7049	1062.6	0.253295
47.6622	1064.7	0.253405
47.6196	1066.8	0.255612
47.5769	1068.9	0.25758
47.535	1071	0.256862
47.4928	1073.1	0.2562
47.4505	1075.2	0.255243
47.4082	1077.3	0.256918
47.3652	1079.4	0.257028
47.3221	1081.5	0.255997
47.2794	1083.6	0.256936
47.2367	1085.7	0.256384
47.1943	1087.8	0.256918
47.1522	1089.9	0.257175
47.1097	1092	0.255757
47.0676	1094.1	0.255905
47.0253	1096.2	0.254984
46.9827	1098.3	0.253897
46.9403	1100.4	0.254358
46.8973	1102.5	0.258429
46.8547	1104.6	0.258889
46.8114	1106.7	0.258558
46.769	1108.8	0.257472
46.7267	1110.9	0.254266
46.684	1113	0.252386
46.6417	1115.1	0.251944
46.5994	1117.2	0.252957
46.5567	1119.3	0.254174
46.5146	1121.4	0.253474
46.472	1123.5	0.253972
46.4289	1125.6	0.252184
46.3861	1127.7	0.251207
46.344	1129.8	0.253475
46.3016	1131.9	0.254452
46.2595	1134	0.252775
46.2173	1136.1	0.24916
46.175	1138.2	0.245416
46.1319	1140.3	0.244217
46.0894	1142.4	0.245969
46.0473	1144.5	0.247758
46.0049	1146.6	0.248071
45.9621	1148.7	0.247536
45.9191	1150.8	0.247684
45.8767	1152.9	0.249529
45.834	1155	0.249917
45.7919	1157.1	0.249696
45.7499	1159.2	0.247149
45.7076	1161.3	0.244842
45.6653	1163.4	0.246798
45.6224	1165.5	0.247519
45.5794	1167.6	0.248682
45.5362	1169.7	0.24715
45.4935	1171.8	0.246522
45.451	1173.9	0.246836
45.4088	1176	0.246873
45.3665	1178.1	0.247483
45.3243	1180.2	0.24704
45.2821	1182.3	0.247076
45.24	1184.4	0.245894
45.1977	1186.5	0.244417
45.1549	1188.6	0.243918
45.1119	1190.7	0.242976
45.0696	1192.8	0.243826
45.0268	1194.9	0.245323
44.9838	1197	0.245379
44.9413	1199.1	0.243143
44.8989	1201.2	0.241572
44.8567	1203.3	0.240795
44.8142	1205.4	0.240906
44.7714	1207.5	0.242071
44.7288	1209.6	0.242293
44.6866	1211.7	0.241849
44.6442	1213.8	0.242644
44.6017	1215.9	0.242016
44.5586	1218	0.241239
44.5162	1220.1	0.239889
44.4734	1222.2	0.240593
44.4307	1224.3	0.241999
44.3885	1226.4	0.241277
44.3465	1228.5	0.23939
44.305	1230.6	0.239224
44.2628	1232.7	0.238909
44.2194	1234.8	0.236467
44.1766	1236.9	0.235819
44.134	1239	0.237226
44.0909	1241.1	0.237466
44.0486	1243.2	0.236781
44.0058	1245.3	0.236504
43.9638	1247.4	0.235319
43.9222	1249.5	0.23443
43.8799	1251.6	0.234152
43.8375	1253.7	0.234967
43.7953	1255.8	0.234948
43.7531	1257.9	0.234855
43.7098	1260	0.233484
43.6669	1262.1	0.230742
43.6243	1264.2	0.231002
43.5811	1266.3	0.232892
43.5384	1268.4	0.232484
43.4958	1270.5	0.230168
43.4535	1272.6	0.228481
43.4111	1274.7	0.22924
43.3686	1276.8	0.230519
43.3264	1278.9	0.230519
43.284	1281	0.229684
43.2418	1283.1	0.23037
43.1988	1285.2	0.231149
43.1565	1287.3	0.231223
43.1135	1289.4	0.229851
43.0713	1291.5	0.228831
43.0295	1293.6	0.227421
42.9869	1295.7	0.225863
42.9452	1297.8	0.226715
42.9027	1299.9	0.228515
42.8599	1302	0.230073
42.817	1304.1	0.228682
42.7744	1306.2	0.227865
42.7314	1308.3	0.227438
42.6887	1310.4	0.227679
42.6462	1312.5	0.22857
42.6036	1314.6	0.227791
42.5614	1316.7	0.226863
42.5191	1318.8	0.226621
42.477	1320.9	0.227828
42.4342	1323	0.228701
42.3916	1325.1	0.227512
42.349	1327.2	0.226082
42.3066	1329.3	0.223277
42.2639	1331.4	0.222812
42.2215	1333.5	0.223815
42.1795	1335.6	0.22532
42.1375	1337.7	0.226082
42.0956	1339.8	0.226045
42.0531	1341.9	0.224243
42.01	1344	0.222291
41.9671	1346.1	0.222347
41.9241	1348.2	0.222476
41.8811	1350.3	0.221547
41.8386	1352.4	0.220915
41.7961	1354.5	0.221379
41.7542	1356.6	0.222439
41.7118	1358.7	0.222904
41.6694	1360.8	0.222476
41.6277	1362.9	0.22043
41.5852	1365	0.218979
41.5425	1367.1	0.218402
41.5003	1369.2	0.21803
41.4574	1371.3	0.218736
41.4141	1373.4	0.218922
41.3712	1375.5	0.218066
41.3288	1377.6	0.219108
41.2866	1379.7	0.219573
41.2444	1381.8	0.2176
41.2019	1383.9	0.218195
41.1594	1386	0.219759
41.1165	1388.1	0.219665
41.0741	1390.2	0.219498
41.0317	1392.3	0.218995
40.9892	1394.4	0.217747
40.9469	1396.5	0.214823
40.9038	1398.6	0.213184
40.8615	1400.7	0.212811
40.8191	1402.8	0.212754
40.7771	1404.9	0.21363
40.7348	1407	0.214598
40.6928	1409.1	0.214989
40.6501	1411.2	0.21579
40.6073	1413.3	0.213833
40.5646	1415.4	0.21126
40.5222	1417.5	0.213459
40.4797	1419.6	0.216088
40.4367	1421.7	0.215193
40.3938	1423.8	0.211202
40.3509	1425.9	0.211873
40.3083	1428	0.212301
40.2657	1430.1	0.211443
40.2235	1432.2	0.210921
40.1814	1434.3	0.210025
40.1395	1436.4	0.210995
40.0975	1438.5	0.209203
40.0548	1440.6	0.208941
40.0122	1442.7	0.209128
39.9698	1444.8	0.209743
39.9274	1446.9	0.210489
39.8851	1449	0.211627
39.8426	1451.1	0.211645
39.8003	1453.2	0.20948
39.7573	1455.3	0.208583
39.7146	1457.4	0.207986
39.6721	1459.5	0.208452
39.6295	1461.6	0.209254
39.587	1463.7	0.209198
39.5447	1465.8	0.209496
39.5023	1467.9	0.208991
39.4598	1470	0.207646
39.4177	1472.1	0.207403
39.3754	1474.2	0.208935
39.333	1476.3	0.207103
39.29	1478.4	0.207084
39.2471	1480.5	0.206692
39.2042	1482.6	0.205794
39.1617	1484.7	0.204971
39.1194	1486.8	0.20641
39.0772	1488.9	0.207119
39.035	1491	0.206689
38.993	1493.1	0.205361
38.9509	1495.2	0.204744
38.9081	1497.3	0.203322
38.8646	1499.4	0.202031
38.8217	1501.5	0.202928
38.7793	1503.6	0.202871
38.737	1505.7	0.202141
38.6945	1507.8	0.20302
38.652	1509.9	0.203599
38.6095	1512	0.202346
38.5672	1514.1	0.201766
38.5251	1516.2	0.20201
38.4826	1518.3	0.201205
38.4406	1520.4	0.19982
38.3979	1522.5	0.19791
38.3554	1524.6	0.196599
38.3127	1526.7	0.195381
38.2701	1528.8	0.195118
38.2274	1530.9	0.19345
38.1848	1533	0.19328
38.1428	1535.1	0.194215
38.1006	1537.2	0.194195
38.0581	1539.3	0.193688
38.0156	1541.4	0.192319
37.9729	1543.5	0.19288
37.9303	1545.6	0.191716
37.8877	1547.7	0.191827
37.8451	1549.8	0.19252
37.8029	1551.9	0.192256
37.7599	1554	0.193943
37.7176	1556.1	0.195273
37.675	1558.2	0.194335
37.6327	1560.3	0.192646
37.5904	1562.4	0.191913
37.5482	1564.5	0.191387
37.5059	1566.6	0.190935
37.4637	1568.7	0.190371
37.4211	1570.8	0.190351
37.3784	1572.9	0.192433
37.3358	1575	0.192113
37.2934	1577.1	0.192675
37.2505	1579.2	0.193349
37.2082	1581.3	0.192973
37.1655	1583.4	0.192859
37.1224	1585.5	0.191337
37.0797	1587.6	0.191655
37.0378	1589.7	0.191222
36.9955	1591.8	0.191334
36.9531	1593.9	0.190769
36.9105	1596	0.192064
36.8683	1598.1	0.192908
36.8257	1600.2	0.191781
36.7829	1602.3	0.191441
36.7399	1604.4	0.192042
36.6974	1606.5	0.192435
36.6553	1608.6	0.193355
36.6133	1610.7	0.192941
36.5712	1612.8	0.193598
36.5278	1614.9	0.193127
36.4852	1617	0.193765
36.4425	1619.1	0.193012
36.3995	1621.2	0.190323
36.3571	1623.3	0.190604
36.3151	1625.4	0.191638
36.2732	1627.5	0.191355
36.2315	1629.6	0.190621
36.1895	1631.7	0.191448
36.1469	1633.8	0.193874
36.1037	1635.9	0.195191
36.0609	1638	0.194212
36.0185	1640.1	0.191915
35.9753	1642.2	0.1902771
35.9328	1644.3	0.189166
35.8904	1646.4	0.188826
35.8484	1648.5	0.189503
35.8067	1650.6	0.191216
35.7646	1652.7	0.192156
35.7219	1654.8	0.191271
35.6794	1656.9	0.191515
35.6363	1659	0.190893
35.5938	1661.1	0.189743
35.551	1663.2	0.188763
35.5082	1665.3	0.189365
35.4658	1667.4	0.188535
35.4233	1669.5	0.187931
35.3813	1671.6	0.189777
35.3391	1673.7	0.188721
35.2967	1675.8	0.186628
35.2542	1677.9	0.187418
35.2116	1680	0.187361
35.1693	1682.1	0.186587
35.1268	1684.2	0.188057
35.0837	1686.3	0.18932
35.0412	1688.4	0.188377
34.9986	1690.5	0.186396
34.9564	1692.6	0.18698
34.9141	1694.7	0.187261
34.8721	1696.8	0.18577
34.8301	1698.9	0.18343
34.7878	1701	0.18273
34.745	1703.1	0.183333
34.702	1705.2	0.183634
34.6591	1707.3	0.183991
34.6163	1709.4	0.181423
34.5741	1711.5	0.179138
34.5315	1713.6	0.178003
34.4893	1715.7	0.179399
34.4471	1717.8	0.180682
34.4051	1719.9	0.179774
34.3628	1722	0.178148
34.3201	1724.1	0.176522
34.2773	1726.2	0.175954
34.2344	1728.3	0.174346
34.1924	1730.4	0.174892
34.1492	1732.5	0.17559
34.1071	1734.6	0.178008
34.0653	1736.7	0.178479
34.0223	1738.8	0.177362
33.9795	1740.9	0.176888
33.9372	1743	0.175185
33.8951	1745.1	0.174029
33.8532	1747.2	0.173839
33.8102	1749.3	0.174196
33.767	1751.4	0.175103
33.725	1753.5	0.173153
33.6825	1755.6	0.171996
33.6398	1757.7	0.172184
33.5974	1759.8	0.170952
33.5549	1761.9	0.172029
33.5125	1764	0.173977
33.4703	1766.1	0.173312
33.4278	1768.2	0.173121
33.3856	1770.3	0.171548
33.3427	1772.4	0.169994
33.2996	1774.5	0.168951
33.2568	1776.6	0.168002
33.2148	1778.7	0.167773
33.1725	1780.8	0.169419
33.1299	1782.9	0.168223
33.0878	1785	0.167066
33.0452	1787.1	0.165168
33.0022	1789.2	0.165734
32.9603	1791.3	0.167968
32.918	1793.4	0.167208
32.8751	1795.5	0.164874
32.8326	1797.6	0.164796
32.7901	1799.7	0.166007
32.7479	1801.8	0.167218
32.7057	1803.9	0.166629
32.6632	1806	0.167746
32.6207	1808.1	0.168256
32.5788	1810.2	0.166243
32.536	1812.3	0.164799
32.4938	1814.4	0.164417
32.4507	1816.5	0.164017
32.408	1818.6	0.16335
32.3652	1820.7	0.163272
32.3232	1822.8	0.16382
32.2813	1824.9	0.163704
32.2386	1827	0.163417
32.1962	1829.1	0.163415
32.154	1831.2	0.163906
32.1115	1833.3	0.164701
32.0689	1835.4	0.164471
32.0261	1837.5	0.164089
31.9831	1839.6	0.163118
31.9406	1841.7	0.160057
31.8983	1843.8	0.158459
31.8557	1845.9	0.158266
31.8134	1848	0.161342
31.7711	1850.1	0.16324
31.7288	1852.2	0.161717
31.6865	1854.3	0.159814
31.6442	1856.4	0.159355
31.6018	1858.5	0.159809
31.5588	1860.6	0.161213
31.5159	1862.7	0.160013
31.4729	1864.8	0.158527
31.4305	1866.9	0.159457
31.3883	1869	0.158827
31.3463	1871.1	0.159928
31.3042	1873.2	0.160363
31.2614	1875.3	0.16038
31.2193	1877.4	0.160358
31.1771	1879.5	0.15889
31.1343	1881.6	0.157289
31.0915	1883.7	0.156372
31.0489	1885.8	0.155075
31.0067	1887.9	0.155529
30.9641	1890	0.155221
30.9216	1892.1	0.154076
30.8793	1894.2	0.154149
30.837	1896.3	0.153937
30.7948	1898.4	0.153839
30.752	1900.5	0.154388
30.71	1902.6	0.154576
30.6672	1904.7	0.154058
30.6248	1906.8	0.155619
30.5824	1908.9	0.155387
30.5402	1911	0.154527
30.4984	1913.1	0.154924
30.4557	1915.2	0.155741
30.4127	1917.3	0.155509
30.3697	1919.4	0.155773
30.3271	1921.5	0.15518
30.2845	1923.6	0.153232
30.2426	1925.7	0.150539
30.1998	1927.8	0.150956
30.1573	1929.9	0.152708
30.1145	1932	0.153239
30.0725	1934.1	0.153656
30.0297	1936.2	0.153348
29.9877	1938.3	0.152334
29.9448	1940.4	0.151853
29.9024	1942.5	0.152824
29.86	1944.6	0.152115
29.8183	1946.7	0.149878
29.7765	1948.8	0.150849
29.7344	1950.9	0.150445
29.6922	1953	0.149219
29.6486	1955.1	0.148623
29.6057	1957.2	0.148124
29.563	1959.3	0.14684
29.5201	1961.4	0.147448
29.4776	1963.5	0.148764
29.4354	1965.6	0.149506
29.393	1967.7	0.149714
29.3509	1969.8	0.149405
29.3086	1971.9	0.147738
29.2666	1974	0.144885
29.224	1976.1	0.144652
29.1815	1978.2	0.1444
29.139	1980.3	0.143267
29.0961	1982.4	0.1429
29.0537	1984.5	0.142935
29.0117	1986.6	0.14341
28.9689	1988.7	0.143215
28.9261	1990.8	0.142579
28.8837	1992.9	0.142844
28.8412	1995	0.141959
28.7994	1997.1	0.141534
28.7569	1999.2	0.142316
28.7143	2001.3	0.142638
28.6714	2003.4	0.14158
28.6289	2005.5	0.139086
28.5863	2007.6	0.139331
28.5436	2009.7	0.141032
28.5017	2011.8	0.141469
28.4594	2013.9	0.13886
28.4172	2016	0.13807
28.3748	2018.1	0.137299
28.3319	2020.2	0.137813
28.2896	2022.3	0.139515
28.2472	2024.4	0.139549
28.2051	2026.5	0.138606
28.1631	2028.6	0.139005
28.1204	2030.7	0.138291
28.0777	2032.8	0.13823
28.0348	2034.9	0.138168
27.9919	2037	0.1369358
27.949	2039.1	0.136529
27.9069	2041.2	0.13591
27.8648	2043.3	0.136558
27.8231	2045.4	0.137284
27.7803	2047.5	0.136243
27.7376	2049.6	0.134972
27.6954	2051.7	0.136081
27.6529	2053.8	0.135866
27.6104	2055.9	0.136188
27.5676	2058	0.13507
27.5254	2060.1	0.135623
27.4827	2062.2	0.135215
27.4402	2064.3	0.134135
27.3976	2066.4	0.133497
27.3548	2068.5	0.131494
27.3125	2070.6	0.132201
27.2702	2072.7	0.132138
27.2278	2074.8	0.131653
27.1851	2076.9	0.132629
27.1426	2079	0.133047
27.1001	2081.1	0.131966
27.0578	2083.2	0.131173
27.0159	2085.3	0.131342
26.9734	2087.4	0.131549
26.9311	2089.5	0.129351
26.8891	2091.6	0.129269
26.8466	2093.7	0.129861
26.8043	2095.8	0.129067
26.7614	2097.9	0.128581
26.7188	2100	0.128673
26.6765	2102.1	0.128456
26.6337	2104.2	0.128664
26.5913	2106.3	0.129063
26.549	2108.4	0.129232
26.5067	2110.5	0.128303
26.4645	2112.6	0.1265257
26.4223	2114.7	0.12523
26.3798	2116.8	0.124685
26.3373	2118.9	0.125277
26.2946	2121	0.124964
26.2519	2123.1	0.123975
26.2096	2125.2	0.123623
26.1671	2127.3	0.125102
26.1248	2129.4	0.124923
26.0819	2131.5	0.123337
26.0392	2133.6	0.123235
25.9963	2135.7	0.123905
25.954	2137.8	0.12336
25.9123	2139.9	0.123317
25.8706	2142	0.12443
25.8283	2144.1	0.124232
25.7856	2146.2	0.122509
25.7431	2148.3	0.122215
25.6999	2150.4	0.122345
25.6571	2152.5	0.122165
25.6147	2154.6	0.121619
25.5723	2156.7	0.120475
25.5299	2158.8	0.121184
25.4877	2160.9	0.121178
25.4452	2163	0.119222
25.4028	2165.1	0.118327
25.3599	2167.2	0.118708
25.3179	2169.3	0.117504
25.2758	2171.4	0.117363
25.2332	2173.5	0.118246
25.1912	2175.6	0.118724
25.1488	2177.7	0.118196
25.1062	2179.8	0.116354
25.0637	2181.9	0.115284
25.0211	2184	0.116014
24.9782	2186.1	0.116646
24.9356	2188.2	0.116795
24.8927	2190.3	0.115976
24.8502	2192.4	0.115138
24.8085	2194.5	0.115171
24.7667	2196.6	0.115184
24.7242	2198.7	0.116126
24.6819	2200.8	0.115192
24.6398	2202.9	0.114431
24.5972	2205	0.112566
24.5545	2207.1	0.111456
24.5116	2209.2	0.111799
24.4691	2211.3	0.112024
24.4268	2213.4	0.112173
24.3848	2215.5	0.111895
24.343	2217.6	0.11156
24.3003	2219.7	0.109519
24.2577	2221.8	0.109338
24.2153	2223.9	0.109932
24.1721	2226	0.110119
24.1296	2228.1	0.109648
24.0873	2230.2	0.108555
24.0449	2232.3	0.109111
24.0027	2234.4	0.110307
23.9597	2236.5	0.109524
23.9174	2238.6	0.108509
23.8749	2240.7	0.10633
23.8327	2242.8	0.105896
23.7905	2244.9	0.107732
23.7478	2247	0.107376
23.7056	2249.1	0.106671
23.663	2251.2	0.105053
23.6208	2253.3	0.103163
23.5782	2255.4	0.103835
23.5359	2257.5	0.104605
23.4932	2259.6	0.104967
23.4505	2261.7	0.105231
23.4081	2263.8	0.1048747
23.3658	2265.9	0.106033
23.3239	2268	0.1062987
23.2812	2270.1	0.104679
23.239	2272.2	0.102165
23.1966	2274.3	0.101886
23.1543	2276.4	0.102636
23.1118	2278.5	0.101365
23.0692	2280.6	0.101397
23.0268	2282.7	0.101215
22.9845	2284.8	0.100935
22.9424	2286.9	0.101005
22.8998	2289	0.0999864
22.8567	2291.1	0.0994536
22.8145	2293.2	0.0990762
22.772	2295.3	0.0994773
22.7303	2297.4	0.0985355
22.688	2299.5	0.0963477
22.6455	2301.6	0.0969626
22.6027	2303.7	0.0990574
22.5595	2305.8	0.0996729
22.5169	2307.9	0.0992565
22.4749	2310	0.0984115
22.4332	2312.1	0.0976637
22.3908	2314.2	0.0969936
22.3485	2316.3	0.0957584
22.3065	2318.4	0.0954583
22.2643	2320.5	0.0947878
22.2218	2322.6	0.095306
22.1793	2324.7	0.0962336
22.1363	2326.8	0.0964792
22.0934	2328.9	0.0957305
22.0515	2331	0.095352
22.0092	2333.1	0.0941934
21.9672	2335.2	0.0926639
21.9249	2337.3	0.0919143
21.8827	2339.4	0.0912428
21.8402	2341.5	0.0906492
21.7977	2343.6	0.0916161
21.7553	2345.7	0.0921932
21.7121	2347.8	0.0923604
21.6698	2349.9	0.0909855
21.6277	2352	0.0905084
21.5852	2354.1	0.0905195
21.5427	2356.2	0.0906087
21.5001	2358.3	0.09017054
21.4574	2360.4	0.09024024
21.4146	2362.5	0.0885321
21.3722	2364.6	0.0877027
21.3301	2366.7	0.0865214
21.2874	2368.8	0.0856524
21.2448	2370.9	0.0875586
21.2027	2373	0.087843
21.1605	2375.1	0.0863094
21.1182	2377.2	0.0856161
21.0761	2379.3	0.086878
21.0341	2381.4	0.0867518
20.9915	2383.5	0.0864103
20.9491	2385.6	0.0853842
20.907	2387.7	0.0862555
20.8638	2389.8	0.0874009
20.8209	2391.9	0.0880573
20.779	2394	0.0871287
20.7369	2396.1	0.0848885
20.6944	2398.2	0.0847031
20.6519	2400.3	0.0857707
20.6092	2402.4	0.085605
20.5665	2404.5	0.0842253
20.524	2406.6	0.0832369
20.482	2408.7	0.08234597
20.4398	2410.8	0.0823952
20.3978	2412.9	0.0820723
20.3553	2415	0.0818278
20.3128	2417.1	0.0823867
20.2706	2419.2	0.0828282
20.2286	2421.3	0.0822502
20.1855	2423.4	0.0800647
20.143	2425.5	0.0786431
20.1006	2427.6	0.08055485
20.0583	2429.7	0.08158464
20.0159	2431.8	0.0802218
19.9738	2433.9	0.0792707
19.9319	2436	0.080438
19.8895	2438.1	0.0798789
19.8465	2440.2	0.07877031
19.8036	2442.3	0.0792118
19.761	2444.4	0.07979089
19.719	2446.5	0.0804879
19.6766	2448.6	0.0795947
19.6348	2450.7	0.0779944
19.5921	2452.8	0.07800433
19.5497	2454.9	0.0780142
19.5076	2457	0.0767667
19.4655	2459.1	0.0766977
19.4226	2461.2	0.0769432
19.3801	2463.3	0.0778569
19.3381	2465.4	0.0766087
19.2957	2467.5	0.076068
19.2529	2469.6	0.0752518
19.2105	2471.7	0.0740224
19.1682	2473.8	0.0750739
19.126	2475.9	0.0754373
19.0838	2478	0.0738142
19.0415	2480.1	0.073489
18.9988	2482.2	0.0738327
18.9558	2484.3	0.0715794
18.9133	2486.4	0.071136
18.8705	2488.5	0.0709876
18.8278	2490.6	0.0713115
18.7857	2492.7	0.0719503
18.744	2494.8	0.0709159
18.7023	2496.9	0.0708657
18.66	2499	0.07199724
18.6174	2501.1	0.0713367
18.5751	2503.2	0.07087291
18.5327	2505.3	0.0712956
18.4899	2507.4	0.0709892
18.4476	2509.5	0.0718455
18.405	2511.6	0.0705737
18.3633	2513.7	0.0693016
18.3214	2515.8	0.0676347
18.2784	2517.9	0.0669335
18.2359	2520	0.0669222
18.1934	2522.1	0.0661223
18.1511	2524.2	0.0648485
18.1091	2526.3	0.0650934
18.0667	2528.4	0.06547644
18.0246	2530.5	0.0656819
17.982	2532.6	0.0652562
17.9397	2534.7	0.062916
17.8974	2536.8	0.0627662
17.855	2538.9	0.0621229
17.8138	2541	0.062111
17.7714	2543.1	0.0629876
17.7291	2545.2	0.0619293
17.686	2547.3	0.0607523
17.6431	2549.4	0.0615699
17.5999	2551.5	0.060669
17.5575	2553.6	0.06032113
17.5152	2555.7	0.0608228
17.4723	2557.8	0.0607119
17.4299	2559.9	0.0607594
17.3874	2562	0.0601938
17.3461	2564.1	0.0590154
17.304	2566.2	0.0575795
17.2619	2568.3	0.0581801
17.2195	2570.4	0.0590579
17.1775	2572.5	0.0590457
17.1355	2574.6	0.0588356
17.0932	2576.7	0.0581903
17.0508	2578.8	0.0563772
17.0078	2580.9	0.0562459
16.9651	2583	0.0559958
16.9223	2585.1	0.0551915
16.8802	2587.2	0.0554559
16.8383	2589.3	0.0560967
16.7963	2591.4	0.0555494
16.7538	2593.5	0.0548436
16.7118	2595.6	0.05502893
16.6692	2597.7	0.0556304
16.6268	2599.8	0.0549639
16.5842	2601.9	0.0542775
16.5418	2604	0.0534323
16.4991	2606.1	0.052567
16.4567	2608.2	0.0522765
16.4145	2610.3	0.0507568
16.3724	2612.4	0.04931581
16.3299	2614.5	0.0480331
16.2874	2616.6	0.0478013
16.2453	2618.7	0.0500292
16.2029	2620.8	0.050611
16.1609	2622.9	0.0480381
16.1188	2625	0.0463972
16.0764	2627.1	0.04614532
16.0336	2629.2	0.0453574
15.9909	2631.3	0.0454427
15.949	2633.4	0.046362
15.9064	2635.5	0.0464474
15.8643	2637.6	0.0467712
15.8228	2639.7	0.0452676
15.7803	2641.8	0.0445386
15.7383	2643.9	0.0457167
15.6958	2646	0.0459014
15.654	2648.1	0.0452119
15.6118	2650.2	0.0438464
15.5695	2652.3	0.0435937
15.5269	2654.4	0.0442555
15.4842	2656.5	0.0431875
15.4414	2658.6	0.0422188
15.3994	2660.7	0.0420452
15.3572	2662.8	0.042389
15.3143	2664.9	0.0426531
15.2725	2667	0.0420221
15.2304	2669.1	0.0418684
15.1886	2671.2	0.0407594
15.1459	2673.3	0.0419789
15.1029	2675.4	0.0414071
15.0608	2677.5	0.0406759
15.018	2679.6	0.0408205
14.9757	2681.7	0.0412243
14.9333	2683.8	0.0402337
14.8914	2685.9	0.0389641
14.8494	2688	0.0391885
14.8076	2690.1	0.0379383
14.765	2692.2	0.0374452
14.7227	2694.3	0.0373705
14.6809	2696.4	0.0371561
14.6385	2698.5	0.0358452
14.5965	2700.6	0.0354313
14.5536	2702.7	0.03543603
14.5115	2704.8	0.035321
14.4689	2706.9	0.0338496
14.4265	2709	0.0335548
14.3847	2711.1	0.0322225
14.3422	2713.2	0.0316081
14.2999	2715.3	0.03225093
14.2574	2717.4	0.0329138
14.2152	2719.5	0.0323193
14.1727	2721.6	0.0312654
14.1307	2723.7	0.0327472
14.0887	2725.8	0.0325918
14.0466	2727.9	0.0318172
14.0048	2730	0.0303032
13.9623	2732.1	0.03008749
13.9192	2734.2	0.02997156
13.8776	2736.3	0.0291362
13.8357	2738.4	0.0298597
13.7935	2740.5	0.0291441
13.7508	2742.6	0.029188
13.7087	2744.7	0.0289719
13.6665	2746.8	0.0286758
13.6244	2748.9	0.0281596
13.5818	2751	0.0264232
13.5393	2753.1	0.0261066
13.4974	2755.2	0.0266303
13.4553	2757.3	0.02627361
13.4133	2759.4	0.0269176
13.3714	2761.5	0.0274016
13.3292	2763.6	0.0281659
13.2866	2765.7	0.0288504
13.2446	2767.8	0.0285939
13.2022	2769.9	0.027276
13.1596	2772	0.0257374
13.1171	2774.1	0.0253803
13.0753	2776.2	0.0241415
13.0331	2778.3	0.0230026
12.9915	2780.4	0.0233464
12.9495	2782.5	0.0235499
12.9068	2784.6	0.0222301
12.865	2786.7	0.0218722
12.8232	2788.8	0.0217548
12.7811	2790.9	0.023001
12.7396	2793	0.0236859
12.6979	2795.1	0.0218838
12.6553	2797.2	0.021285
12.6132	2799.3	0.0189404
12.5705	2801.4	0.01743794
12.5283	2803.5	0.0190859
12.4867	2805.6	0.0193494
12.445	2807.7	0.0191513
12.4032	2809.8	0.01959555
12.361	2811.9	0.0211444
12.3182	2814	0.0202033
12.2761	2816.1	0.0191817
12.2339	2818.2	0.0186018
12.1918	2820.3	0.0185641
12.1502	2822.4	0.0185665
12.1077	2824.5	0.0196543
12.0656	2826.6	0.0206418
12.0234	2828.7	0.0203028
11.9811	2830.8	0.0189987
11.9394	2832.9	0.0178149
11.8975	2835	0.0174754
11.8552	2837.1	0.0168543
11.8135	2839.2	0.0162531
11.7714	2841.3	0.01695946
11.7291	2843.4	0.0181287
11.6865	2845.5	0.0166622
11.6449	2847.6	0.015477
11.603	2849.7	0.0139694
11.5609	2851.8	0.0132465
11.519	2853.9	0.0147181
11.4772	2856	0.0144986
11.4352	2858.1	0.0142186
11.3935	2860.2	0.0152478
11.3522	2862.3	0.0149275
11.3098	2864.4	0.014043
11.2678	2866.5	0.0135613
11.2255	2868.6	0.014329
11.1832	2870.7	0.0155403
11.1413	2872.8	0.0148771
11.0995	2874.9	0.0152823
11.0576	2877	0.0152642
11.0162	2879.1	0.013552
10.9754	2881.2	0.0129689
10.9327	2883.3	0.0134346
10.8909	2885.4	0.0146268
10.8491	2887.5	0.0140638
10.8071	2889.6	0.01428765
10.7648	2891.7	0.014229
10.7232	2893.8	0.0137061
10.6814	2895.9	0.0136676
10.6397	2898	0.0143559
10.5976	2900.1	0.0151454
10.5557	2902.2	0.01549076
10.5137	2904.3	0.0161796
10.4722	2906.4	0.01632316
10.4302	2908.5	0.0161435
10.3886	2910.6	0.0151151
10.347	2912.7	0.0154202
10.3046	2914.8	0.0161904
10.2625	2916.9	0.0160914
10.2207	2919	0.0144155
10.1785	2921.1	0.0148218
10.1371	2923.2	0.0155923
10.0958	2925.3	0.0160798
10.0533	2927.4	0.0157178
10.0113	2929.5	0.0166303
9.96905	2931.6	0.0170169
9.92763	2933.7	0.0177275
9.88617	2935.8	0.0169607
9.84422	2937.9	0.0176309
9.80275	2940	0.01702586
9.76045	2942.1	0.01723057
9.71865	2944.2	0.0179214
9.6771	2946.3	0.0193414
9.63644	2948.4	0.02082248
9.595	2950.5	0.0214126
9.55397	2952.6	0.0203821
9.51216	2954.7	0.0216004
9.4703	2956.8	0.0231231
9.42841	2958.9	0.0248488
9.38702	2961	0.0242235
9.34509	2963.1	0.0245103
9.30355	2965.2	0.0255879
9.26209	2967.3	0.02832862
9.22035	2969.4	0.029691
9.17915	2971.5	0.03012063
9.13806	2973.6	0.0321529
9.09629	2975.7	0.0341653
9.05476	2977.8	0.0352652
9.01354	2979.9	0.036487
8.972	2982	0.0380338
8.93074	2984.1	0.0400073
8.88984	2986.2	0.0413519
8.84801	2988.3	0.0419049
8.80629	2990.4	0.0447525
8.76522	2992.5	0.048007
8.72391	2994.6	0.0490078
8.68205	2996.7	0.0502527
8.64071	2998.8	0.0508883
8.62687	2999.5	0.051195