File: rawdata/empty_3
empty
Furnace temperature 	Time	HeatFlow
/°C	/s	/mW
64.8078	0	-0.186439
64.9391	2.1	-0.186959
65.2647	4.2	-0.187605
65.7274	6.3	-0.189475
66.263	8.4	-0.194221
66.7779	10.5	-0.202832
67.2141	12.6	-0.216008
67.5375	14.7	-0.233912
67.7417	16.8	-0.25577
67.8468	18.9	-0.281168
67.8794	21	-0.308489
67.8731	23.1	-0.336619
67.8532	25.2	-0.365271
67.836	27.3	-0.3933855
67.8305	29.4	-0.421879
67.8337	31.5	-0.449924
67.8418	33.6	-0.478026
67.8499	35.7	-0.506111
67.8529	37.8	-0.534611
67.8484	39.9	-0.562088
67.8377	42	-0.589224
67.8214	44.1	-0.6167382
67.8027	46.2	-0.641899
67.7821	48.3	-0.666378
67.7608	50.4	-0.690535
67.739	52.5	-0.712428
67.7179	54.6	-0.733262
67.6946	56.7	-0.753072
67.67	58.8	-0.771948
67.6444	60.9	-0.789441
67.6178	63	-0.805821
67.5897	65.1	-0.820996
67.5605	67.2	-0.834824
67.5311	69.3	-0.846585
67.5013	71.4	-0.857753
67.4715	73.5	-0.866801
67.4412	75.6	-0.875327
67.4102	77.7	-0.883369
67.3782	79.8	-0.888552
67.3455	81.9	-0.893304
67.312	84	-0.897228
67.2779	86.1	-0.899517
67.2436	88.2	-0.899719
67.2093	90.3	-0.899365
67.1743	92.4	-0.898524
67.1395	94.5	-0.897253
67.1043	96.6	-0.895729
67.0688	98.7	-0.892767
67.0328	100.8	-0.88815
66.9962	102.9	-0.883353
66.9595	105	-0.87753
66.9227	107.1	-0.872193
66.8856	109.2	-0.864877
66.8481	111.3	-0.856535
66.8106	113.4	-0.846934
66.7728	115.5	-0.837062
66.7349	117.6	-0.826219
66.697	119.7	-0.816311
66.6585	121.8	-0.805808
66.62	123.9	-0.795683
66.5812	126	-0.784801
66.5423	128.1	-0.77203
66.5032	130.2	-0.7594015
66.464	132.3	-0.747025
66.4247	134.4	-0.734324
66.3853	136.5	-0.722882
66.3456	138.6	-0.710593
66.306	140.7	-0.695407
66.2662	142.8	-0.680219
66.2263	144.9	-0.666058
66.1863	147	-0.652489
66.1461	149.1	-0.637983
66.1058	151.2	-0.625114
66.0655	153.3	-0.612353
66.025	155.4	-0.598151
65.9845	157.5	-0.582454
65.9439	159.6	-0.568142
65.9032	161.7	-0.55266
65.8984	163.8	-0.536259
65.9061	165.9	-0.522917
65.9013	168	-0.508152
65.88	170.1	-0.496807
65.8432	172.2	-0.483427
65.7952	174.3	-0.465851
65.743	176.4	-0.450183
65.6917	178.5	-0.435018
65.6457	180.6	-0.42059
65.6059	182.7	-0.405567
65.5712	184.8	-0.393136
65.5392	186.9	-0.379877
65.5074	189	-0.367409
65.4726	191.1	-0.354346
65.4349	193.2	-0.338977
65.3943	195.3	-0.324561
65.3513	197.4	-0.311207
65.3084	199.5	-0.299527
65.2655	201.6	-0.288604
65.2235	203.7	-0.275842
65.1828	205.8	-0.262107
65.1423	207.9	-0.252298
65.1021	210	-0.239516
65.061	212.1	-0.224139
65.0198	214.2	-0.2100043
64.9778	216.3	-0.198913
64.9354	218.4	-0.1882
64.893	220.5	-0.174909
64.8508	222.6	-0.1636
64.8084	224.7	-0.152398
64.766	226.8	-0.14233
64.7242	228.9	-0.131307
64.6819	231	-0.118878
64.6392	233.1	-0.107763
64.5961	235.2	-0.0972783
64.5527	237.3	-0.086901
64.5091	239.4	-0.0774782
64.4658	241.5	-0.0662885
64.4226	243.6	-0.0554225
64.3801	245.7	-0.0472954
64.3371	247.8	-0.04023131
64.2946	249.9	-0.0307153
64.2513	252	-0.0216132
64.2084	254.1	-0.0147458
64.1648	256.2	-0.007048647
64.1209	258.3	0.000973504
64.0772	260.4	0.008311121
64.0335	262.5	0.017326
63.9905	264.6	0.0246106
63.9469	266.7	0.0337888
63.9035	268.8	0.039055
63.8598	270.9	0.0459264
63.8165	273	0.0533573
63.7728	275.1	0.0603378
63.7295	277.2	0.0647041
63.6854	279.3	0.0722807
63.6413	281.4	0.0787758
63.5974	283.5	0.0854877
63.5539	285.6	0.092128
63.5102	287.7	0.0982818
63.4667	289.8	0.104057
63.4235	291.9	0.107596
63.3799	294	0.113373
63.336	296.1	0.119257
63.2922	298.2	0.125738
63.2486	300.3	0.132688
63.2048	302.4	0.137727
63.1607	304.5	0.141755
63.1166	306.6	0.147606
63.0723	308.7	0.154558
63.0285	310.8	0.160175
62.9851	312.9	0.162852
62.9414	315	0.167459
62.8981	317.1	0.171489
62.855	319.2	0.176404
62.8115	321.3	0.178216
62.7674	323.4	0.181002
62.7234	325.5	0.18673
62.6798	327.6	0.189408
62.6356	329.7	0.193224
62.5916	331.8	0.197834
62.5475	333.9	0.200296
62.5042	336	0.20395
62.4606	338.1	0.207442
62.4178	340.2	0.209309
62.3746	342.3	0.213
62.3308	344.4	0.215789
62.2869	346.5	0.218415
62.2428	348.6	0.220428
62.1991	350.7	0.223398
62.1544	352.8	0.225194
62.1114	354.9	0.227659
62.0677	357	0.231026
62.0248	359.1	0.233365
61.9815	361.2	0.234151
61.938	363.3	0.236851
61.8942	365.4	0.240689
61.8507	367.5	0.243516
61.807	369.6	0.2457477
61.7634	371.7	0.247871
61.7194	373.8	0.249506
61.6758	375.9	0.252081
61.6322	378	0.252362
61.5895	380.1	0.252047
61.5457	382.2	0.255996
61.5027	384.3	0.258897
61.4595	386.4	0.257877
61.416	388.5	0.262026
61.373	390.6	0.265651
61.329	392.7	0.266348
61.285	394.8	0.267335
61.2415	396.9	0.269116
61.1981	399	0.271567
61.1548	401.1	0.274271
61.1118	403.2	0.273596
61.0689	405.3	0.274673
61.0258	407.4	0.276944
60.9823	409.5	0.278763
60.9387	411.6	0.278395
60.8952	413.7	0.27866
60.852	415.8	0.280461
60.8084	417.9	0.280111
60.7651	420	0.2843
60.722	422.1	0.288289
60.6785	424.2	0.28812
60.6349	426.3	0.287445
60.5917	428.4	0.287222
60.5488	430.5	0.2887896
60.506	432.6	0.289833
60.4629	434.7	0.288253
60.4197	436.8	0.28946
60.3765	438.9	0.288477
60.3329	441	0.28943
60.2895	443.1	0.291848
60.2461	445.2	0.295044
60.2027	447.3	0.293863
60.1595	449.4	0.294563
60.1164	451.5	0.294757
60.0735	453.6	0.296723
60.0303	455.7	0.295234
59.9879	457.8	0.296044
59.9451	459.9	0.298934
59.902	462	0.299417
59.8584	464.1	0.299014
59.8144	466.2	0.299986
59.771	468.3	0.299854
59.7279	470.4	0.300754
59.6854	472.5	0.302179
59.6426	474.6	0.301885
59.5999	476.7	0.30226
59.5569	478.8	0.302871
59.5137	480.9	0.301708
59.4707	483	0.301776
59.4278	485.1	0.302713
59.3843	487.2	0.303433
59.3411	489.3	0.302939
59.2976	491.4	0.303025
59.255	493.5	0.304831
59.2123	495.6	0.303632
59.1699	497.7	0.302794
59.1268	499.8	0.30538
59.084	501.9	0.306064
59.041	504	0.304393
58.9977	506.1	0.302234
58.9549	508.2	0.301396
58.912	510.3	0.299435
58.8688	512.4	0.298887
58.8257	514.5	0.3001329
58.7827	516.6	0.299676
58.7395	518.7	0.301991
58.697	520.8	0.305937
58.6543	522.9	0.305824
58.6114	525	0.305748
58.568	527.1	0.30732
58.5249	529.2	0.307008
58.4821	531.3	0.306334
58.4396	533.4	0.307563
58.3969	535.5	0.308538
58.354	537.6	0.308172
58.3117	539.7	0.307841
58.2692	541.8	0.306732
58.2265	543.9	0.30633
58.1839	546	0.3077223
58.1406	548.1	0.307864
58.0971	550.2	0.307353
58.0538	552.3	0.305772
58.0111	554.4	0.303738
57.9683	556.5	0.30406
57.926	558.6	0.303803
57.8825	560.7	0.305341
57.8403	562.8	0.307151
57.7977	564.9	0.306604
57.7552	567	0.305657
57.7126	569.1	0.307577
57.6694	571.2	0.307791
57.6264	573.3	0.305593
57.5833	575.4	0.305934
57.5406	577.5	0.305768
57.4976	579.6	0.305383
57.4545	581.7	0.304056
57.4121	583.8	0.304162
57.3699	585.9	0.303668
57.3274	588	0.304047
57.2847	590.1	0.306221
57.2421	592.2	0.306273
57.1992	594.3	0.305127
57.1562	596.4	0.305686
57.113	598.5	0.305574
57.07	600.6	0.306134
57.0271	602.7	0.305205
56.9844	604.8	0.305947
56.942	606.9	0.304873
56.8998	609	0.304652
56.8573	611.1	0.303759
56.8145	613.2	0.300416
56.7718	615.3	0.30074
56.7291	617.4	0.302516
56.6857	619.5	0.302677
56.6433	621.6	0.303092
56.6002	623.7	0.302581
56.5578	625.8	0.30216
56.515	627.9	0.300813
56.4724	630	0.298431
56.4303	632.1	0.296376
56.3877	634.2	0.296936
56.3453	636.3	0.298005
56.3022	638.4	0.298965
56.2592	640.5	0.300144
56.216	642.6	0.301813
56.1734	644.7	0.300356
56.1307	646.8	0.299081
56.0876	648.9	0.296971
56.0451	651	0.295823
56.003	653.1	0.296075
55.9611	655.2	0.2962
55.9186	657.3	0.296797
55.8757	659.4	0.299903
55.8329	661.5	0.301609
55.7892	663.6	0.301043
55.747	665.7	0.300714
55.7042	667.8	0.299421
55.662	669.9	0.298437
55.6193	672	0.298398
55.5772	674.1	0.299287
55.5346	676.2	0.297539
55.4921	678.3	0.2965
55.4491	680.4	0.297043
55.4061	682.5	0.296786
55.3629	684.6	0.295165
55.3205	686.7	0.295181
55.2779	688.8	0.296798
55.2352	690.9	0.299197
55.1922	693	0.298376
55.15	695.1	0.297647
55.1077	697.2	0.295425
55.0652	699.3	0.295568
55.0229	701.4	0.295912
54.9803	703.5	0.294545
54.9375	705.6	0.29356
54.8945	707.7	0.292284
54.8519	709.8	0.291681
54.8088	711.9	0.290696
54.7662	714	0.288509
54.7238	716.1	0.289344
54.6812	718.2	0.289361
54.6392	720.3	0.28934
54.5965	722.4	0.290048
54.554	724.5	0.290192
54.5111	726.6	0.290444
54.4683	728.7	0.28975
54.4252	730.8	0.28902
54.3829	732.9	0.289947
54.3404	735	0.291748
54.2981	737.1	0.291036
54.256	739.2	0.288812
54.2132	741.3	0.289611
54.1709	743.4	0.288334
54.128	745.5	0.289097
54.0853	747.6	0.287474
54.0426	749.7	0.285795
53.9999	751.8	0.286522
53.9568	753.9	0.288015
53.9138	756	0.2878308
53.8715	758.1	0.288667
53.8292	760.2	0.289048
53.787	762.3	0.289922
53.7443	764.4	0.288334
53.7022	766.5	0.288715
53.6597	768.6	0.288203
53.6174	770.7	0.286597
53.575	772.8	0.284171
53.5319	774.9	0.283841
53.4894	777	0.284896
53.4466	779.1	0.284657
53.4038	781.2	0.281556
53.3607	783.3	0.281226
53.3183	785.4	0.283832
53.2761	787.5	0.284524
53.2338	789.6	0.28403
53.1914	791.7	0.282295
53.1487	793.8	0.280907
53.1053	795.9	0.281306
53.0626	798	0.283458
53.0198	800.1	0.283675
52.9775	802.2	0.281684
52.9349	804.3	0.282157
52.893	806.4	0.281663
52.8511	808.5	0.280493
52.8085	810.6	0.27936
52.7655	812.7	0.280509
52.7227	814.8	0.279996
52.6802	816.9	0.280506
52.6379	819	0.281582
52.5956	821.1	0.279992
52.5533	823.2	0.277306
52.5107	825.3	0.277341
52.4683	827.4	0.278399
52.4257	829.5	0.280972
52.3829	831.6	0.280605
52.3395	833.7	0.278723
52.2968	835.8	0.2779
52.2538	837.9	0.27757
52.2113	840	0.276929
52.169	842.1	0.277074
52.1268	844.2	0.279137
52.0844	846.3	0.278496
52.0421	848.4	0.277106
52.0002	850.5	0.276465
51.9571	852.6	0.276866
51.9149	854.7	0.275732
51.8722	856.8	0.272989
51.8295	858.9	0.272659
51.7867	861	0.274503
51.744	863.1	0.27357
51.7011	865.2	0.27344
51.659	867.3	0.273421
51.617	869.4	0.274717
51.5747	871.5	0.27574
51.5324	873.6	0.274953
51.4904	875.7	0.274257
51.4473	877.8	0.273963
51.4039	879.9	0.274346
51.3611	882	0.273686
51.3182	884.1	0.274234
51.2764	886.2	0.273007
51.2341	888.3	0.270847
51.1919	890.4	0.269767
51.1491	892.5	0.270479
51.1066	894.6	0.270515
51.0639	896.7	0.270971
51.021	898.8	0.270403
50.9787	900.9	0.268846
50.9364	903	0.267582
50.8942	905.1	0.269283
50.8521	907.2	0.270636
50.8094	909.3	0.269244
50.7668	911.4	0.268089
50.7242	913.5	0.268582
50.6816	915.6	0.269204
50.6388	917.7	0.268947
50.5962	919.8	0.269459
50.5536	921.9	0.268396
50.5111	924	0.26627
50.4686	926.1	0.26528
50.4259	928.2	0.264418
50.3835	930.3	0.264069
50.3409	932.4	0.266412
50.2989	934.5	0.265514
50.2563	936.6	0.265549
50.2144	938.7	0.264211
50.1718	940.8	0.263898
50.1292	942.9	0.262816
50.086	945	0.261624
50.0434	947.1	0.263675
50.0005	949.2	0.26153
49.9577	951.3	0.258853
49.9152	953.4	0.259035
49.8725	955.5	0.259529
49.8302	957.6	0.260737
49.7883	959.7	0.261323
49.746	961.8	0.259745
49.7036	963.9	0.260001
49.6608	966	0.261998
49.6183	968.1	0.26341
49.5762	970.2	0.26141
49.5337	972.3	0.259465
49.4908	974.4	0.260619
49.4479	976.5	0.261425
49.4049	978.6	0.260746
49.3625	980.7	0.261424
49.3204	982.8	0.26012
49.2784	984.9	0.259477
49.2359	987	0.258889
49.1931	989.1	0.259677
49.1507	991.2	0.259511
49.1082	993.3	0.256611
49.0656	995.4	0.255508
49.0228	997.5	0.255966
48.98	999.6	0.255616
48.9379	1001.7	0.256551
48.8949	1003.8	0.257138
48.8523	1005.9	0.254457
48.8102	1008	0.253116
48.7678	1010.1	0.254914
48.7253	1012.2	0.256878
48.6829	1014.3	0.256547
48.64	1016.4	0.257795
48.5973	1018.5	0.259778
48.5549	1020.6	0.258638
48.5126	1022.7	0.257609
48.4697	1024.8	0.257957
48.4272	1026.9	0.259078
48.3848	1029	0.257203
48.343	1031.1	0.257331
48.3002	1033.2	0.255787
48.2577	1035.3	0.253122
48.2152	1037.4	0.252055
48.1722	1039.5	0.254572
48.1302	1041.6	0.255913
48.0879	1043.7	0.255435
48.0457	1045.8	0.251188
48.003	1047.9	0.248558
47.9603	1050	0.252179
47.9177	1052.1	0.25547
47.8746	1054.2	0.25477
47.8323	1056.3	0.253924
47.7899	1058.4	0.25271
47.7474	1060.5	0.251606
47.7049	1062.6	0.251127
47.6622	1064.7	0.251715
47.6196	1066.8	0.250481
47.5769	1068.9	0.251308
47.535	1071	0.250259
47.4928	1073.1	0.250277
47.4505	1075.2	0.25035
47.4082	1077.3	0.25138
47.3652	1079.4	0.249079
47.3221	1081.5	0.250385
47.2794	1083.6	0.250919
47.2367	1085.7	0.250808
47.1943	1087.8	0.2488
47.1522	1089.9	0.247676
47.1097	1092	0.249075
47.0676	1094.1	0.248743
47.0253	1096.2	0.248024
46.9827	1098.3	0.246809
46.9403	1100.4	0.245095
46.8973	1102.5	0.242811
46.8547	1104.6	0.242828
46.8114	1106.7	0.243601
46.769	1108.8	0.243637
46.7267	1110.9	0.2440788
46.684	1113	0.243452
46.6417	1115.1	0.241774
46.5994	1117.2	0.244077
46.5567	1119.3	0.244113
46.5146	1121.4	0.242564
46.472	1123.5	0.242508
46.4289	1125.6	0.242821
46.3861	1127.7	0.242452
46.344	1129.8	0.242543
46.3016	1131.9	0.242837
46.2595	1134	0.241417
46.2173	1136.1	0.242412
46.175	1138.2	0.242171
46.1319	1140.3	0.24254
46.0894	1142.4	0.241027
46.0473	1144.5	0.239182
46.0049	1146.6	0.23682
45.9621	1148.7	0.234144
45.9191	1150.8	0.234531
45.8767	1152.9	0.236135
45.834	1155	0.239972
45.7919	1157.1	0.241836
45.7499	1159.2	0.242223
45.7076	1161.3	0.241189
45.6653	1163.4	0.241595
45.6224	1165.5	0.240284
45.5794	1167.6	0.240985
45.5362	1169.7	0.2398213
45.4935	1171.8	0.237937
45.451	1173.9	0.239045
45.4088	1176	0.237179
45.3665	1178.1	0.235627
45.3243	1180.2	0.234961
45.2821	1182.3	0.233649
45.24	1184.4	0.233279
45.1977	1186.5	0.233999
45.1549	1188.6	0.23313
45.1119	1190.7	0.232668
45.0696	1192.8	0.233406
45.0268	1194.9	0.232592
44.9838	1197	0.230743
44.9413	1199.1	0.230982
44.8989	1201.2	0.232312
44.8567	1203.3	0.232071
44.8142	1205.4	0.232237
44.7714	1207.5	0.233789
44.7288	1209.6	0.23464
44.6866	1211.7	0.23279
44.6442	1213.8	0.230756
44.6017	1215.9	0.229923
44.5586	1218	0.227517
44.5162	1220.1	0.227128
44.4734	1222.2	0.228625
44.4307	1224.3	0.228939
44.3885	1226.4	0.228846
44.3465	1228.5	0.227809
44.305	1230.6	0.226457
44.2628	1232.7	0.226216
44.2194	1234.8	0.227233
44.1766	1236.9	0.227991
44.134	1239	0.225677
44.0909	1241.1	0.225269
44.0486	1243.2	0.22723
44.0058	1245.3	0.228303
43.9638	1247.4	0.226413
43.9222	1249.5	0.226135
43.8799	1251.6	0.226523
43.8375	1253.7	0.227486
43.7953	1255.8	0.226967
43.7531	1257.9	0.225484
43.7098	1260	0.225298
43.6669	1262.1	0.225669
43.6243	1264.2	0.226743
43.5811	1266.3	0.225445
43.5384	1268.4	0.224555
43.4958	1270.5	0.223998
43.4535	1272.6	0.22359
43.4111	1274.7	0.221661
43.3686	1276.8	0.222272
43.3264	1278.9	0.22355
43.284	1281	0.225274
43.2418	1283.1	0.224772
43.1988	1285.2	0.223418
43.1565	1287.3	0.222694
43.1135	1289.4	0.222323
43.0713	1291.5	0.221209
43.0295	1293.6	0.221413
42.9869	1295.7	0.22067
42.9452	1297.8	0.219556
42.9027	1299.9	0.218832
42.8599	1302	0.218015
42.817	1304.1	0.219164
42.7744	1306.2	0.217827
42.7314	1308.3	0.217251
42.6887	1310.4	0.218753
42.6462	1312.5	0.218697
42.6036	1314.6	0.219606
42.5614	1316.7	0.220051
42.5191	1318.8	0.21992
42.477	1320.9	0.218416
42.4342	1323	0.216855
42.3916	1325.1	0.215684
42.349	1327.2	0.216593
42.3066	1329.3	0.215738
42.2639	1331.4	0.215923
42.2215	1333.5	0.216683
42.1795	1335.6	0.21711
42.1375	1337.7	0.216199
42.0956	1339.8	0.215604
42.0531	1341.9	0.214711
42.01	1344	0.216197
41.9671	1346.1	0.216717
41.9241	1348.2	0.215006
41.8811	1350.3	0.212626
41.8386	1352.4	0.2119
41.7961	1354.5	0.211787
41.7542	1356.6	0.213366
41.7118	1358.7	0.21489
41.6694	1360.8	0.213774
41.6277	1362.9	0.213327
41.5852	1365	0.214554
41.5425	1367.1	0.21472
41.5003	1369.2	0.214627
41.4574	1371.3	0.213584
41.4141	1373.4	0.213211
41.3712	1375.5	0.211387
41.3288	1377.6	0.211684
41.2866	1379.7	0.212483
41.2444	1381.8	0.211645
41.2019	1383.9	0.211626
41.1594	1386	0.211551
41.1165	1388.1	0.211271
41.0741	1390.2	0.21032
41.0317	1392.3	0.2095
40.9892	1394.4	0.209257
40.9469	1396.5	0.209759
40.9038	1398.6	0.210205
40.8615	1400.7	0.207615
40.8191	1402.8	0.206664
40.7771	1404.9	0.206365
40.7348	1407	0.207407
40.6928	1409.1	0.207481
40.6501	1411.2	0.208878
40.6073	1413.3	0.207964
40.5646	1415.4	0.207385
40.5222	1417.5	0.207235
40.4797	1419.6	0.206507
40.4367	1421.7	0.206096
40.3938	1423.8	0.203914
40.3509	1425.9	0.203559
40.3083	1428	0.202271
40.2657	1430.1	0.202232
40.2235	1432.2	0.203704
40.1814	1434.3	0.203834
40.1395	1436.4	0.20456
40.0975	1438.5	0.20413
40.0548	1440.6	0.204036
40.0122	1442.7	0.203811
39.9698	1444.8	0.201646
39.9274	1446.9	0.200263
39.8851	1449	0.201027
39.8426	1451.1	0.201661
39.8003	1453.2	0.201175
39.7573	1455.3	0.201565
39.7146	1457.4	0.199287
39.6721	1459.5	0.200089
39.6295	1461.6	0.199957
39.587	1463.7	0.199582
39.5447	1465.8	0.199804
39.5023	1467.9	0.200755
39.4598	1470	0.201333
39.4177	1472.1	0.201893
39.3754	1474.2	0.19965
39.333	1476.3	0.198566
39.29	1478.4	0.198677
39.2471	1480.5	0.197125
39.2042	1482.6	0.197609
39.1617	1484.7	0.197122
39.1194	1486.8	0.1957
39.0772	1488.9	0.195511
39.035	1491	0.19551
38.993	1493.1	0.19491
38.9509	1495.2	0.194553
38.9081	1497.3	0.195693
38.8646	1499.4	0.195206
38.8217	1501.5	0.195953
38.7793	1503.6	0.197579
38.737	1505.7	0.196324
38.6945	1507.8	0.194265
38.652	1509.9	0.194956
38.6095	1512	0.19531
38.5672	1514.1	0.194803
38.5251	1516.2	0.192837
38.4826	1518.3	0.189953
38.4406	1520.4	0.189053
38.3979	1522.5	0.189763
38.3554	1524.6	0.191109
38.3127	1526.7	0.191782
38.2701	1528.8	0.191836
38.2274	1530.9	0.192284
38.1848	1533	0.192358
38.1428	1535.1	0.19363
38.1006	1537.2	0.193198
38.0581	1539.3	0.191173
38.0156	1541.4	0.191341
37.9729	1543.5	0.191208
37.9303	1545.6	0.18997
37.8877	1547.7	0.189669
37.8451	1549.8	0.188018
37.8029	1551.9	0.1891599
37.7599	1554	0.18914
37.7176	1556.1	0.189438
37.675	1558.2	0.189605
37.6327	1560.3	0.189116
37.5904	1562.4	0.188796
37.5482	1564.5	0.1878943
37.5059	1566.6	0.187161
37.4637	1568.7	0.185771
37.4211	1570.8	0.185357
37.3784	1572.9	0.184717
37.3358	1575	0.183834
37.2934	1577.1	0.183588
37.2505	1579.2	0.184093
37.2082	1581.3	0.1844289
37.1655	1583.4	0.183958
37.1224	1585.5	0.184369
37.0797	1587.6	0.185513
37.0378	1589.7	0.185511
36.9955	1591.8	0.18596
36.9531	1593.9	0.186635
36.9105	1596	0.185882
36.8683	1598.1	0.185092
36.8257	1600.2	0.183662
36.7829	1602.3	0.183154
36.7399	1604.4	0.183546
36.6974	1606.5	0.182849
36.6553	1608.6	0.181495
36.6133	1610.7	0.181211
36.5712	1612.8	0.179725
36.5278	1614.9	0.178538
36.4852	1617	0.179382
36.4425	1619.1	0.179662
36.3995	1621.2	0.177686
36.3571	1623.3	0.177646
36.3151	1625.4	0.178829
36.2732	1627.5	0.179636
36.2315	1629.6	0.179596
36.1895	1631.7	0.177958
36.1469	1633.8	0.178953
36.1037	1635.9	0.177051
36.0609	1638	0.177293
36.0185	1640.1	0.177159
35.9753	1642.2	0.176743
35.9328	1644.3	0.177042
35.8904	1646.4	0.178
35.8484	1648.5	0.177471
35.8067	1650.6	0.177356
35.7646	1652.7	0.177863
35.7219	1654.8	0.178614
35.6794	1656.9	0.179046
35.6363	1659	0.179326
35.5938	1661.1	0.177497
35.551	1663.2	0.176987
35.5082	1665.3	0.17593
35.4658	1667.4	0.174628
35.4233	1669.5	0.172666
35.3813	1671.6	0.172852
35.3391	1673.7	0.173999
35.2967	1675.8	0.172772
35.2542	1677.9	0.173072
35.2116	1680	0.173258
35.1693	1682.1	0.174255
35.1268	1684.2	0.175328
35.0837	1686.3	0.173101
35.0412	1688.4	0.170477
34.9986	1690.5	0.169946
34.9564	1692.6	0.171793
34.9141	1694.7	0.17196
34.8721	1696.8	0.172241
34.8301	1698.9	0.171881
34.7878	1701	0.172143
34.745	1703.1	0.173217
34.702	1705.2	0.172761
34.6591	1707.3	0.170909
34.6163	1709.4	0.169548
34.5741	1711.5	0.168639
34.5315	1713.6	0.16926
34.4893	1715.7	0.170768
34.4471	1717.8	0.170313
34.4051	1719.9	0.170159
34.3628	1722	0.171442
34.3201	1724.1	0.172195
34.2773	1726.2	0.169529
34.2344	1728.3	0.168828
34.1924	1730.4	0.170715
34.1492	1732.5	0.17162
34.1071	1734.6	0.171448
34.0653	1736.7	0.170369
34.0223	1738.8	0.167852
33.9795	1740.9	0.169457
33.9372	1743	0.170117
33.8951	1745.1	0.169944
33.8532	1747.2	0.170037
33.8102	1749.3	0.169316
33.767	1751.4	0.169692
33.725	1753.5	0.17039
33.6825	1755.6	0.168685
33.6398	1757.7	0.167321
33.5974	1759.8	0.164575
33.5549	1761.9	0.165083
33.5125	1764	0.165932
33.4703	1766.1	0.163715
33.4278	1768.2	0.161574
33.3856	1770.3	0.16229
33.3427	1772.4	0.162647
33.2996	1774.5	0.162663
33.2568	1776.6	0.162699
33.2148	1778.7	0.162052
33.1725	1780.8	0.161349
33.1299	1782.9	0.162217
33.0878	1785	0.161987
33.0452	1787.1	0.159729
33.0022	1789.2	0.158002
32.9603	1791.3	0.15923
32.918	1793.4	0.160081
32.8751	1795.5	0.15968
32.8326	1797.6	0.160095
32.7901	1799.7	0.159978
32.7479	1801.8	0.160373
32.7057	1803.9	0.161053
32.6632	1806	0.159837
32.6207	1808.1	0.158829
32.5788	1810.2	0.158351
32.536	1812.3	0.158576
32.4938	1814.4	0.158403
32.4507	1816.5	0.158096
32.408	1818.6	0.157068
32.3652	1820.7	0.157559
32.3232	1822.8	0.157157
32.2813	1824.9	0.155047
32.2386	1827	0.154247
32.1962	1829.1	0.155364
32.154	1831.2	0.156424
32.1115	1833.3	0.157409
32.0689	1835.4	0.157861
32.0261	1837.5	0.156225
31.9831	1839.6	0.155197
31.9406	1841.7	0.155251
31.8983	1843.8	0.15597
31.8557	1845.9	0.155207
31.8134	1848	0.152505
31.7711	1850.1	0.150848
31.7288	1852.2	0.150597
31.6865	1854.3	0.151544
31.6442	1856.4	0.151712
31.6018	1858.5	0.150511
31.5588	1860.6	0.150831
31.5159	1862.7	0.150067
31.4729	1864.8	0.149778
31.4305	1866.9	0.150497
31.3883	1869	0.150703
31.3463	1871.1	0.150776
31.3042	1873.2	0.150449
31.2614	1875.3	0.149133
31.2193	1877.4	0.148768
31.1771	1879.5	0.149639
31.1343	1881.6	0.150626
31.0915	1883.7	0.150584
31.0489	1885.8	0.149096
31.0067	1887.9	0.147283
30.9641	1890	0.147603
30.9216	1892.1	0.148952
30.8793	1894.2	0.150053
30.837	1896.3	0.150164
30.7948	1898.4	0.148599
30.752	1900.5	0.14791
30.71	1902.6	0.147944
30.6672	1904.7	0.146626
30.6248	1906.8	0.146622
30.5824	1908.9	0.147228
30.5402	1911	0.14875
30.4984	1913.1	0.147221
30.4557	1915.2	0.146951
30.4127	1917.3	0.14546
30.3697	1919.4	0.143168
30.3271	1921.5	0.142744
30.2845	1923.6	0.144056
30.2426	1925.7	0.144873
30.1998	1927.8	0.145021
30.1573	1929.9	0.145514
30.1145	1932	0.14635
30.0725	1934.1	0.146251
30.0297	1936.2	0.145866
29.9877	1938.3	0.145423
29.9448	1940.4	0.144904
29.9024	1942.5	0.145569
29.86	1944.6	0.146138
29.8183	1946.7	0.143613
29.7765	1948.8	0.143514
29.7344	1950.9	0.145363
29.6922	1953	0.145856
29.6486	1955.1	0.144286
29.6057	1957.2	0.142161
29.563	1959.3	0.140667
29.5201	1961.4	0.140587
29.4776	1963.5	0.138728
29.4354	1965.6	0.139833
29.393	1967.7	0.140001
29.3509	1969.8	0.140226
29.3086	1971.9	0.140624
29.2666	1974	0.140563
29.224	1976.1	0.138818
29.1815	1978.2	0.138489
29.139	1980.3	0.138025
29.0961	1982.4	0.138136
29.0537	1984.5	0.138208
29.0117	1986.6	0.139448
28.9689	1988.7	0.139291
28.9261	1990.8	0.138138
28.8837	1992.9	0.136813
28.8412	1995	0.135986
28.7994	1997.1	0.137303
28.7569	1999.2	0.137796
28.7143	2001.3	0.138079
28.6714	2003.4	0.138401
28.6289	2005.5	0.13652
28.5863	2007.6	0.136745
28.5436	2009.7	0.138388
28.5017	2011.8	0.137809
28.4594	2013.9	0.137748
28.4172	2016	0.137935
28.3748	2018.1	0.13565
28.3319	2020.2	0.133288
28.2896	2022.3	0.133878
28.2472	2024.4	0.132512
28.2051	2026.5	0.135288
28.1631	2028.6	0.1363
28.1204	2030.7	0.13503
28.0777	2032.8	0.133318
28.0348	2034.9	0.133352
27.9919	2037	0.134537
27.949	2039.1	0.134187
27.9069	2041.2	0.132628
27.8648	2043.3	0.131088
27.8231	2045.4	0.131717
27.7803	2047.5	0.132327
27.7376	2049.6	0.131977
27.6954	2051.7	0.130513
27.6529	2053.8	0.129336
27.6104	2055.9	0.130407
27.5676	2058	0.130037
27.5254	2060.1	0.129764
27.4827	2062.2	0.130162
27.4402	2064.3	0.130004
27.3976	2066.4	0.129384
27.3548	2068.5	0.129072
27.3125	2070.6	0.128856
27.2702	2072.7	0.12812
27.2278	2074.8	0.128115
27.1851	2076.9	0.12738
27.1426	2079	0.127356
27.1001	2081.1	0.127947
27.0578	2083.2	0.127942
27.0159	2085.3	0.125475
26.9734	2087.4	0.123546
26.9311	2089.5	0.124098
26.8891	2091.6	0.124305
26.8466	2093.7	0.124376
26.8043	2095.8	0.123543
26.7614	2097.9	0.123288
26.7188	2100	0.122185
26.6765	2102.1	0.123335
26.6337	2104.2	0.124619
26.5913	2106.3	0.123594
26.549	2108.4	0.122394
26.5067	2110.5	0.122562
26.4645	2112.6	0.122306
26.4223	2114.7	0.122012
26.3798	2116.8	0.12164
26.3373	2118.9	0.119611
26.2946	2121	0.118276
26.2519	2123.1	0.119869
26.2096	2125.2	0.121387
26.1671	2127.3	0.121902
26.1248	2129.4	0.121029
26.0819	2131.5	0.119635
26.0392	2133.6	0.119378
25.9963	2135.7	0.120279
25.954	2137.8	0.120929
25.9123	2139.9	0.119728
25.8706	2142	0.119259
25.8283	2144.1	0.119929
25.7856	2146.2	0.118765
25.7431	2148.3	0.118103
25.6999	2150.4	0.117962
25.6571	2152.5	0.117396
25.6147	2154.6	0.117043
25.5723	2156.7	0.116535
25.5299	2158.8	0.117127
25.4877	2160.9	0.116523
25.4452	2163	0.115493
25.4028	2165.1	0.115159
25.3599	2167.2	0.115887
25.3179	2169.3	0.11561
25.2758	2171.4	0.117228
25.2332	2173.5	0.116758
25.1912	2175.6	0.115186
25.1488	2177.7	0.11286
25.1062	2179.8	0.112003
25.0637	2181.9	0.1147618
25.0211	2184	0.11433
24.9782	2186.1	0.112526
24.9356	2188.2	0.111223
24.8927	2190.3	0.11201
24.8502	2192.4	0.111907
24.8085	2194.5	0.111571
24.7667	2196.6	0.111333
24.7242	2198.7	0.110804
24.6819	2200.8	0.110411
24.6398	2202.9	0.108971
24.5972	2205	0.109042
24.5545	2207.1	0.107641
24.5116	2209.2	0.107208
24.4691	2211.3	0.10786
24.4268	2213.4	0.108202
24.3848	2215.5	0.108156
24.343	2217.6	0.107394
24.3003	2219.7	0.106495
24.2577	2221.8	0.105927
24.2153	2223.9	0.105183
24.1721	2226	0.106591
24.1296	2228.1	0.107108
24.0873	2230.2	0.105046
24.0449	2232.3	0.104282
24.0027	2234.4	0.104702
23.9597	2236.5	0.10452
23.9174	2238.6	0.105929
23.8749	2240.7	0.106426
23.8327	2242.8	0.105624
23.7905	2244.9	0.103754
23.7478	2247	0.104077
23.7056	2249.1	0.104109
23.663	2251.2	0.103713
23.6208	2253.3	0.103162
23.5782	2255.4	0.104126
23.5359	2257.5	0.105206
23.4932	2259.6	0.104558
23.4505	2261.7	0.102881
23.4081	2263.8	0.10233
23.3658	2265.9	0.101468
23.3239	2268	0.100625
23.2812	2270.1	0.100501
23.239	2272.2	0.100726
23.1966	2274.3	0.100563
23.1543	2276.4	0.0993895
23.1118	2278.5	0.0992458
23.0692	2280.6	0.09951061
23.0268	2282.7	0.0988807
22.9845	2284.8	0.0994953
22.9424	2286.9	0.0986124
22.8998	2289	0.0980988
22.8567	2291.1	0.0983635
22.8145	2293.2	0.0975969
22.772	2295.3	0.0965965
22.7303	2297.4	0.096939
22.688	2299.5	0.0963278
22.6455	2301.6	0.0960668
22.6027	2303.7	0.0967012
22.5595	2305.8	0.0976085
22.5169	2307.9	0.0976203
22.4749	2310	0.0975151
22.4332	2312.1	0.0956569
22.3908	2314.2	0.0943242
22.3485	2316.3	0.0934393
22.3065	2318.4	0.0935089
22.2643	2320.5	0.0942414
22.2218	2322.6	0.0949934
22.1793	2324.7	0.0927048
22.1363	2326.8	0.0913515
22.0934	2328.9	0.0910116
22.0515	2331	0.09170492
22.0092	2333.1	0.0925544
21.9672	2335.2	0.0926239
21.9249	2337.3	0.0922255
21.8827	2339.4	0.0913978
21.8402	2341.5	0.0893407
21.7977	2343.6	0.0887075
21.7553	2345.7	0.0879963
21.7121	2347.8	0.0877728
21.6698	2349.9	0.08848615
21.6277	2352	0.0873253
21.5852	2354.1	0.0875702
21.5427	2356.2	0.0871709
21.5001	2358.3	0.0873377
21.4574	2360.4	0.0870359
21.4146	2362.5	0.0863432
21.3722	2364.6	0.0854159
21.3301	2366.7	0.0847815
21.2874	2368.8	0.0847722
21.2448	2370.9	0.0838641
21.2027	2373	0.0842847
21.1605	2375.1	0.0849597
21.1182	2377.2	0.0830539
21.0761	2379.3	0.0845304
21.0341	2381.4	0.0864573
20.9915	2383.5	0.0860571
20.9491	2385.6	0.0845617
20.907	2387.7	0.0843375
20.8638	2389.8	0.0844653
20.8209	2391.9	0.0854345
20.779	2394	0.0837229
20.7369	2396.1	0.0824218
20.6944	2398.2	0.0816098
20.6519	2400.3	0.0807388
20.6092	2402.4	0.08161
20.5665	2404.5	0.0824034
20.524	2406.6	0.0820218
20.482	2408.7	0.0821102
20.4398	2410.8	0.0823945
20.3978	2412.9	0.0828356
20.3553	2415	0.0825324
20.3128	2417.1	0.0819351
20.2706	2419.2	0.08086738
20.2286	2421.3	0.0791329
20.1855	2423.4	0.07835862
20.143	2425.5	0.0793486
20.1006	2427.6	0.07977
20.0583	2429.7	0.0795642
20.0159	2431.8	0.0790444
19.9738	2433.9	0.0792112
19.9319	2436	0.0801236
19.8895	2438.1	0.0789955
19.8465	2440.2	0.0776709
19.8036	2442.3	0.0774255
19.761	2444.4	0.0770426
19.719	2446.5	0.0755995
19.6766	2448.6	0.0754715
19.6348	2450.7	0.076384
19.5921	2452.8	0.0763937
19.5497	2454.9	0.0754408
19.5076	2457	0.0746252
19.4655	2459.1	0.0749095
19.4226	2461.2	0.0752921
19.3801	2463.3	0.0755374
19.3381	2465.4	0.0736798
19.2957	2467.5	0.0724115
19.2529	2469.6	0.07253857
19.2105	2471.7	0.07180047
19.1682	2473.8	0.0716326
19.126	2475.9	0.0713268
19.0838	2478	0.0705686
19.0415	2480.1	0.07045947
18.9988	2482.2	0.070606
18.9558	2484.3	0.0703591
18.9133	2486.4	0.070604
18.8705	2488.5	0.07035695
18.8278	2490.6	0.0716059
18.7857	2492.7	0.0733867
18.744	2494.8	0.0715454
18.7023	2496.9	0.0698611
18.66	2499	0.0689246
18.6174	2501.1	0.0697212
18.5751	2503.2	0.0703604
18.5327	2505.3	0.069719
18.4899	2507.4	0.0690382
18.4476	2509.5	0.069638
18.405	2511.6	0.0703565
18.3633	2513.7	0.0707991
18.3214	2515.8	0.0698421
18.2784	2517.9	0.0685499
18.2359	2520	0.068598
18.1934	2522.1	0.06779819
18.1511	2524.2	0.0669389
18.1091	2526.3	0.06714464
18.0667	2528.4	0.06660068
18.0246	2530.5	0.0656623
17.982	2532.6	0.0639143
17.9397	2534.7	0.0634685
17.8974	2536.8	0.06395027
17.855	2538.9	0.0635834
17.8138	2541	0.0634731
17.7714	2543.1	0.0634417
17.7291	2545.2	0.0648915
17.686	2547.3	0.0639912
17.6431	2549.4	0.0623599
17.5999	2551.5	0.0624074
17.5575	2553.6	0.0623166
17.5152	2555.7	0.0627001
17.4723	2557.8	0.0626884
17.4299	2559.9	0.0619255
17.3874	2562	0.0611823
17.3461	2564.1	0.0612691
17.304	2566.2	0.0607035
17.2619	2568.3	0.0606322
17.2195	2570.4	0.0600665
17.1775	2572.5	0.058927
17.1355	2574.6	0.0585586
17.0932	2576.7	0.05941689
17.0508	2578.8	0.0594047
17.0078	2580.9	0.0584427
16.9651	2583	0.0583314
16.9223	2585.1	0.0573294
16.8802	2587.2	0.0562677
16.8383	2589.3	0.0557205
16.7963	2591.4	0.0562624
16.7538	2593.5	0.0543881
16.7118	2595.6	0.0541376
16.6692	2597.7	0.0554521
16.6268	2599.8	0.055479
16.5842	2601.9	0.0543765
16.5418	2604	0.0538881
16.4991	2606.1	0.0539942
16.4567	2608.2	0.053803
16.4145	2610.3	0.0533738
16.3724	2612.4	0.0526867
16.3299	2614.5	0.0530307
16.2874	2616.6	0.0527995
16.2453	2618.7	0.0508622
16.2029	2620.8	0.050849
16.1609	2622.9	0.0512922
16.1188	2625	0.050763
16.0764	2627.1	0.0514444
16.0336	2629.2	0.0515304
15.9909	2631.3	0.04961133
15.949	2633.4	0.0477713
15.9064	2635.5	0.0483733
15.8643	2637.6	0.0507629
15.8228	2639.7	0.050551
15.7803	2641.8	0.0500014
15.7383	2643.9	0.0499482
15.6958	2646	0.0489811
15.654	2648.1	0.0481527
15.6118	2650.2	0.0473839
15.5695	2652.3	0.0467143
15.5269	2654.4	0.0469789
15.4842	2656.5	0.0479991
15.4414	2658.6	0.0480253
15.3994	2660.7	0.0467388
15.3572	2662.8	0.04652613
15.3143	2664.9	0.0464327
15.2725	2667	0.0454043
15.2304	2669.1	0.0453704
15.1886	2671.2	0.0463117
15.1459	2673.3	0.0465964
15.1029	2675.4	0.0446119
15.0608	2677.5	0.0435625
15.018	2679.6	0.0432098
14.9757	2681.7	0.0437134
14.9333	2683.8	0.043759
14.8914	2685.9	0.0430476
14.8494	2688	0.0420372
14.8076	2690.1	0.0412258
14.765	2692.2	0.04047396
14.7227	2694.3	0.0407782
14.6809	2696.4	0.0401059
14.6385	2698.5	0.0399118
14.5965	2700.6	0.0408142
14.5536	2702.7	0.0405006
14.5115	2704.8	0.0405059
14.4689	2706.9	0.0409103
14.4265	2709	0.0413147
14.3847	2711.1	0.0402427
14.3422	2713.2	0.0394099
14.2999	2715.3	0.039495
14.2574	2717.4	0.0393803
14.2152	2719.5	0.0389463
14.1727	2721.6	0.0397901
14.1307	2723.7	0.0388968
14.0887	2725.8	0.0374242
14.0466	2727.9	0.03679
14.0048	2730	0.0374341
13.9623	2732.1	0.0370595
13.9192	2734.2	0.0365649
13.8776	2736.3	0.0363899
13.8357	2738.4	0.0371142
13.7935	2740.5	0.0362397
13.7508	2742.6	0.0356647
13.7087	2744.7	0.0365892
13.6665	2746.8	0.0362541
13.6244	2748.9	0.0352589
13.5818	2751	0.0341435
13.5393	2753.1	0.03396805
13.4974	2755.2	0.0344928
13.4553	2757.3	0.033697
13.4133	2759.4	0.0319604
13.3714	2761.5	0.0329054
13.3292	2763.6	0.034291
13.2866	2765.7	0.0332746
13.2446	2767.8	0.0327184
13.2022	2769.9	0.0322221
13.1596	2772	0.0309846
13.1171	2774.1	0.0295865
13.0753	2776.2	0.0301114
13.0331	2778.3	0.0303558
12.9915	2780.4	0.03140201
12.9495	2782.5	0.0310254
12.9068	2784.6	0.029446
12.865	2786.7	0.0266231
12.8232	2788.8	0.02636601
12.7811	2790.9	0.0266502
12.7396	2793	0.0264132
12.6979	2795.1	0.0262161
12.6553	2797.2	0.0261595
12.6132	2799.3	0.0259624
12.5705	2801.4	0.0254843
12.5283	2803.5	0.0254074
12.4867	2805.6	0.0239255
12.445	2807.7	0.0239488
12.4032	2809.8	0.0251767
12.361	2811.9	0.0241359
12.3182	2814	0.0244604
12.2761	2816.1	0.025247
12.2339	2818.2	0.0254513
12.1918	2820.3	0.0252337
12.1502	2822.4	0.0255184
12.1077	2824.5	0.0262251
12.0656	2826.6	0.0267714
12.0234	2828.7	0.0266745
11.9811	2830.8	0.0260749
11.9394	2832.9	0.02493234
11.8975	2835	0.0246341
11.8552	2837.1	0.0238731
11.8135	2839.2	0.0227902
11.7714	2841.3	0.02273288
11.7291	2843.4	0.0232189
11.6865	2845.5	0.0243288
11.6449	2847.6	0.0251975
11.603	2849.7	0.02481837
11.5609	2851.8	0.0239359
11.519	2853.9	0.0236573
11.4772	2856	0.0219891
11.4352	2858.1	0.0220524
11.3935	2860.2	0.0220353
11.3522	2862.3	0.0218368
11.3098	2864.4	0.0214166
11.2678	2866.5	0.0213792
11.2255	2868.6	0.0226517
11.1832	2870.7	0.0225339
11.1413	2872.8	0.022557
11.0995	2874.9	0.0227213
11.0576	2877	0.0221799
11.0162	2879.1	0.0222232
10.9754	2881.2	0.0231742
10.9327	2883.3	0.02424643
10.8909	2885.4	0.0239673
10.8491	2887.5	0.02360733
10.8071	2889.6	0.0229648
10.7648	2891.7	0.0217973
10.7232	2893.8	0.0208515
10.6814	2895.9	0.0211167
10.6397	2898	0.020534
10.5976	2900.1	0.0200118
10.5557	2902.2	0.0208022
10.5137	2904.3	0.020603
10.4722	2906.4	0.020525
10.4302	2908.5	0.02127531
10.3886	2910.6	0.0216418
10.347	2912.7	0.0211799
10.3046	2914.8	0.0215262
10.2625	2916.9	0.0207811
10.2207	2919	0.0190249
10.1785	2921.1	0.0207057
10.1371	2923.2	0.0226094
10.0958	2925.3	0.0238056
10.0533	2927.4	0.0236469
10.0113	2929.5	0.0238927
9.96905	2931.6	0.0242196
9.92763	2933.7	0.024931
9.88617	2935.8	0.0254199
9.84422	2937.9	0.0256054
9.80275	2940	0.0269448
9.76045	2942.1	0.0270293
9.71865	2944.2	0.0272961
9.6771	2946.3	0.0289603
9.63644	2948.4	0.0303616
9.595	2950.5	0.0314796
9.55397	2952.6	0.0323548
9.51216	2954.7	0.0323184
9.4703	2956.8	0.0329508
9.42841	2958.9	0.0329752
9.38702	2961	0.0341348
9.34509	2963.1	0.0354366
9.30355	2965.2	0.0355221
9.26209	2967.3	0.03647963
9.22035	2969.4	0.03733601
9.17915	2971.5	0.0380708
9.13806	2973.6	0.0390492
9.09629	2975.7	0.0414075
9.05476	2977.8	0.04214308
9.01354	2979.9	0.0424932
8.972	2982	0.0439393
8.93074	2984.1	0.0439851
8.88984	2986.2	0.04571582
8.84801	2988.3	0.0469394
8.80629	2990.4	0.0484883
8.76522	2992.5	0.04916428
8.72391	2994.6	0.0498809
8.68205	2996.7	0.0522836
8.64071	2998.8	0.053407
8.62687	2999.5	0.0539373